PE IR                   SPECTRUM    ASCII       PEDS        1.60        
  -1
~SP.SP
22/12/06
12:13:43.00
23/01/09
14:30:44.00
Administrator

650.000000
4









FRONTIER FT-IR,CPU32 MAIN 00.09.9951 07-SEPTEMBER-2011 11:49:41
MIR TGS
MIR
OPTKBR
90694
0.200000

4.000000
STRONG
RATIO
SPECTRUM
MAGNITUDE
MIRACLE ATR
DOUBLE

COMBINED


0


#HDR
-1
-1
#GR
CM-1
%T
0.00002384185791015625
0.0
4000.000000
-1.000000
3351
8
85.018979
66.097334
#DATA
4000.000000	85.000735 
3999.000000	84.999285 
3998.000000	84.997725 
3997.000000	84.996506 
3996.000000	84.996158 
3995.000000	84.996752 
3994.000000	84.997410 
3993.000000	84.996893 
3992.000000	84.994611 
3991.000000	84.991120 
3990.000000	84.987982 
3989.000000	84.986393 
3988.000000	84.986400 
3987.000000	84.987183 
3986.000000	84.987862 
3985.000000	84.987928 
3984.000000	84.986980 
3983.000000	84.984642 
3982.000000	84.980966 
3981.000000	84.976687 
3980.000000	84.972834 
3979.000000	84.970099 
3978.000000	84.968643 
3977.000000	84.968179 
3976.000000	84.968046 
3975.000000	84.967473 
3974.000000	84.966148 
3973.000000	84.964516 
3972.000000	84.963362 
3971.000000	84.963146 
3970.000000	84.963845 
3969.000000	84.965135 
3968.000000	84.966526 
3967.000000	84.967487 
3966.000000	84.967576 
3965.000000	84.966658 
3964.000000	84.964875 
3963.000000	84.962506 
3962.000000	84.959989 
3961.000000	84.957894 
3960.000000	84.956660 
3959.000000	84.956371 
3958.000000	84.956830 
3957.000000	84.957665 
3956.000000	84.958306 
3955.000000	84.958186 
3954.000000	84.957144 
3953.000000	84.955587 
3952.000000	84.954090 
3951.000000	84.952852 
3950.000000	84.951669 
3949.000000	84.950292 
3948.000000	84.948746 
3947.000000	84.947226 
3946.000000	84.945839 
3945.000000	84.944524 
3944.000000	84.943264 
3943.000000	84.942239 
3942.000000	84.941633 
3941.000000	84.941364 
3940.000000	84.941070 
3939.000000	84.940451 
3938.000000	84.939526 
3937.000000	84.938491 
3936.000000	84.937464 
3935.000000	84.936474 
3934.000000	84.935557 
3933.000000	84.934789 
3932.000000	84.934174 
3931.000000	84.933611 
3930.000000	84.932990 
3929.000000	84.932219 
3928.000000	84.931261 
3927.000000	84.930146 
3926.000000	84.928976 
3925.000000	84.927862 
3924.000000	84.926848 
3923.000000	84.925877 
3922.000000	84.924910 
3921.000000	84.923936 
3920.000000	84.922959 
3919.000000	84.921980 
3918.000000	84.920999 
3917.000000	84.920015 
3916.000000	84.919030 
3915.000000	84.918051 
3914.000000	84.917079 
3913.000000	84.916114 
3912.000000	84.915151 
3911.000000	84.914190 
3910.000000	84.913235 
3909.000000	84.912294 
3908.000000	84.911367 
3907.000000	84.910448 
3906.000000	84.909529 
3905.000000	84.908598 
3904.000000	84.907644 
3903.000000	84.906662 
3902.000000	84.905653 
3901.000000	84.904628 
3900.000000	84.903605 
3899.000000	84.902605 
3898.000000	84.901651 
3897.000000	84.900760 
3896.000000	84.899937 
3895.000000	84.899194 
3894.000000	84.898527 
3893.000000	84.897896 
3892.000000	84.897120 
3891.000000	84.896143 
3890.000000	84.895432 
3889.000000	84.895398 
3888.000000	84.895573 
3887.000000	84.895264 
3886.000000	84.894462 
3885.000000	84.893824 
3884.000000	84.893814 
3883.000000	84.893646 
3882.000000	84.892170 
3881.000000	84.889850 
3880.000000	84.888227 
3879.000000	84.888188 
3878.000000	84.889284 
3877.000000	84.890234 
3876.000000	84.890626 
3875.000000	84.891267 
3874.000000	84.892697 
3873.000000	84.894389 
3872.000000	84.894742 
3871.000000	84.892629 
3870.000000	84.889630 
3869.000000	84.889152 
3868.000000	84.892131 
3867.000000	84.894956 
3866.000000	84.894310 
3865.000000	84.891673 
3864.000000	84.889766 
3863.000000	84.888720 
3862.000000	84.887443 
3861.000000	84.886089 
3860.000000	84.886232 
3859.000000	84.888986 
3858.000000	84.894375 
3857.000000	84.902568 
3856.000000	84.912941 
3855.000000	84.921817 
3854.000000	84.923836 
3853.000000	84.920372 
3852.000000	84.920140 
3851.000000	84.923233 
3850.000000	84.920847 
3849.000000	84.912333 
3848.000000	84.904672 
3847.000000	84.901120 
3846.000000	84.899799 
3845.000000	84.898325 
3844.000000	84.896436 
3843.000000	84.895624 
3842.000000	84.897297 
3841.000000	84.901032 
3840.000000	84.904857 
3839.000000	84.907528 
3838.000000	84.909623 
3837.000000	84.912536 
3836.000000	84.915822 
3835.000000	84.916944 
3834.000000	84.914119 
3833.000000	84.908487 
3832.000000	84.902995 
3831.000000	84.899802 
3830.000000	84.898727 
3829.000000	84.897892 
3828.000000	84.895784 
3827.000000	84.892755 
3826.000000	84.890550 
3825.000000	84.890305 
3824.000000	84.891014 
3823.000000	84.890661 
3822.000000	84.888368 
3821.000000	84.885550 
3820.000000	84.885132 
3819.000000	84.887405 
3818.000000	84.888338 
3817.000000	84.885994 
3816.000000	84.882760 
3815.000000	84.881383 
3814.000000	84.881803 
3813.000000	84.880445 
3812.000000	84.875828 
3811.000000	84.871694 
3810.000000	84.871010 
3809.000000	84.871714 
3808.000000	84.870224 
3807.000000	84.866599 
3806.000000	84.865111 
3805.000000	84.867855 
3804.000000	84.870837 
3803.000000	84.870079 
3802.000000	84.866041 
3801.000000	84.861460 
3800.000000	84.859077 
3799.000000	84.856447 
3798.000000	84.847964 
3797.000000	84.835885 
3796.000000	84.827372 
3795.000000	84.824533 
3794.000000	84.823683 
3793.000000	84.819996 
3792.000000	84.812674 
3791.000000	84.804439 
3790.000000	84.797832 
3789.000000	84.793897 
3788.000000	84.792889 
3787.000000	84.793916 
3786.000000	84.795163 
3785.000000	84.795937 
3784.000000	84.798535 
3783.000000	84.805374 
3782.000000	84.815143 
3781.000000	84.823332 
3780.000000	84.826206 
3779.000000	84.823194 
3778.000000	84.816486 
3777.000000	84.807949 
3776.000000	84.798163 
3775.000000	84.789746 
3774.000000	84.786863 
3773.000000	84.790474 
3772.000000	84.797020 
3771.000000	84.802885 
3770.000000	84.808099 
3769.000000	84.814319 
3768.000000	84.819700 
3767.000000	84.819532 
3766.000000	84.813399 
3765.000000	84.807402 
3764.000000	84.806406 
3763.000000	84.807907 
3762.000000	84.806206 
3761.000000	84.801091 
3760.000000	84.797601 
3759.000000	84.798099 
3758.000000	84.801193 
3757.000000	84.806446 
3756.000000	84.814695 
3755.000000	84.825264 
3754.000000	84.835970 
3753.000000	84.847045 
3752.000000	84.859498 
3751.000000	84.871248 
3750.000000	84.879712 
3749.000000	84.885604 
3748.000000	84.888997 
3747.000000	84.885406 
3746.000000	84.872114 
3745.000000	84.852196 
3744.000000	84.834372 
3743.000000	84.830754 
3742.000000	84.833331 
3741.000000	84.819358 
3740.000000	84.794500 
3739.000000	84.781016 
3738.000000	84.779687 
3737.000000	84.776245 
3736.000000	84.765520 
3735.000000	84.756886 
3734.000000	84.756296 
3733.000000	84.757145 
3732.000000	84.752939 
3731.000000	84.745269 
3730.000000	84.734841 
3729.000000	84.717337 
3728.000000	84.693165 
3727.000000	84.671304 
3726.000000	84.659386 
3725.000000	84.655503 
3724.000000	84.651268 
3723.000000	84.641932 
3722.000000	84.631037 
3721.000000	84.623079 
3720.000000	84.617515 
3719.000000	84.610241 
3718.000000	84.599211 
3717.000000	84.587362 
3716.000000	84.579233 
3715.000000	84.576352 
3714.000000	84.576345 
3713.000000	84.574436 
3712.000000	84.564927 
3711.000000	84.545401 
3710.000000	84.518736 
3709.000000	84.489033 
3708.000000	84.459818 
3707.000000	84.435383 
3706.000000	84.417944 
3705.000000	84.404600 
3704.000000	84.389110 
3703.000000	84.367004 
3702.000000	84.339247 
3701.000000	84.311277 
3700.000000	84.287367 
3699.000000	84.265997 
3698.000000	84.242909 
3697.000000	84.217993 
3696.000000	84.195707 
3695.000000	84.179372 
3694.000000	84.169118 
3693.000000	84.164884 
3692.000000	84.166567 
3691.000000	84.168988 
3690.000000	84.162670 
3689.000000	84.144848 
3688.000000	84.125427 
3687.000000	84.113832 
3686.000000	84.104530 
3685.000000	84.086812 
3684.000000	84.061902 
3683.000000	84.040020 
3682.000000	84.026316 
3681.000000	84.017914 
3680.000000	84.010708 
3679.000000	84.004088 
3678.000000	83.996362 
3677.000000	83.981976 
3676.000000	83.959850 
3675.000000	83.941705 
3674.000000	83.940542 
3673.000000	83.945948 
3672.000000	83.937643 
3671.000000	83.916735 
3670.000000	83.894903 
3669.000000	83.878256 
3668.000000	83.866355 
3667.000000	83.850444 
3666.000000	83.825780 
3665.000000	83.798286 
3664.000000	83.774073 
3663.000000	83.755577 
3662.000000	83.744434 
3661.000000	83.742185 
3660.000000	83.748171 
3659.000000	83.759201 
3658.000000	83.770704 
3657.000000	83.779534 
3656.000000	83.786585 
3655.000000	83.795525 
3654.000000	83.805418 
3653.000000	83.810799 
3652.000000	83.813359 
3651.000000	83.817705 
3650.000000	83.820066 
3649.000000	83.817216 
3648.000000	83.815656 
3647.000000	83.819717 
3646.000000	83.824689 
3645.000000	83.824876 
3644.000000	83.820552 
3643.000000	83.816578 
3642.000000	83.816295 
3641.000000	83.818159 
3640.000000	83.818013 
3639.000000	83.814599 
3638.000000	83.811489 
3637.000000	83.813130 
3636.000000	83.819185 
3635.000000	83.826189 
3634.000000	83.833577 
3633.000000	83.844100 
3632.000000	83.858109 
3631.000000	83.871212 
3630.000000	83.877509 
3629.000000	83.874156 
3628.000000	83.869484 
3627.000000	83.872951 
3626.000000	83.876855 
3625.000000	83.874100 
3624.000000	83.873533 
3623.000000	83.882083 
3622.000000	83.896274 
3621.000000	83.910118 
3620.000000	83.920949 
3619.000000	83.929304 
3618.000000	83.937214 
3617.000000	83.945763 
3616.000000	83.953509 
3615.000000	83.959383 
3614.000000	83.964394 
3613.000000	83.970233 
3612.000000	83.978357 
3611.000000	83.988933 
3610.000000	84.000982 
3609.000000	84.013877 
3608.000000	84.027068 
3607.000000	84.038929 
3606.000000	84.047187 
3605.000000	84.051278 
3604.000000	84.054274 
3603.000000	84.060352 
3602.000000	84.070540 
3601.000000	84.083126 
3600.000000	84.096098 
3599.000000	84.107251 
3598.000000	84.113665 
3597.000000	84.114161 
3596.000000	84.110541 
3595.000000	84.105904 
3594.000000	84.103296 
3593.000000	84.104681 
3592.000000	84.110340 
3591.000000	84.119270 
3590.000000	84.130087 
3589.000000	84.139983 
3588.000000	84.145316 
3587.000000	84.145778 
3586.000000	84.145503 
3585.000000	84.146880 
3584.000000	84.148785 
3583.000000	84.151028 
3582.000000	84.153979 
3581.000000	84.156689 
3580.000000	84.158047 
3579.000000	84.158336 
3578.000000	84.158660 
3577.000000	84.159490 
3576.000000	84.160009 
3575.000000	84.158448 
3574.000000	84.154109 
3573.000000	84.148525 
3572.000000	84.144332 
3571.000000	84.142729 
3570.000000	84.142248 
3569.000000	84.139990 
3568.000000	84.134516 
3567.000000	84.128270 
3566.000000	84.125815 
3565.000000	84.128495 
3564.000000	84.133125 
3563.000000	84.136366 
3562.000000	84.137064 
3561.000000	84.135279 
3560.000000	84.132139 
3559.000000	84.129596 
3558.000000	84.128704 
3557.000000	84.128510 
3556.000000	84.127289 
3555.000000	84.124355 
3554.000000	84.120513 
3553.000000	84.117178 
3552.000000	84.115191 
3551.000000	84.114405 
3550.000000	84.114043 
3549.000000	84.113353 
3548.000000	84.111960 
3547.000000	84.109890 
3546.000000	84.107648 
3545.000000	84.105987 
3544.000000	84.105026 
3543.000000	84.104059 
3542.000000	84.102405 
3541.000000	84.100125 
3540.000000	84.097687 
3539.000000	84.095422 
3538.000000	84.093350 
3537.000000	84.091361 
3536.000000	84.089378 
3535.000000	84.087366 
3534.000000	84.085312 
3533.000000	84.083207 
3532.000000	84.081048 
3531.000000	84.078842 
3530.000000	84.076610 
3529.000000	84.074377 
3528.000000	84.072163 
3527.000000	84.069963 
3526.000000	84.067733 
3525.000000	84.065427 
3524.000000	84.063070 
3523.000000	84.060744 
3522.000000	84.058492 
3521.000000	84.056287 
3520.000000	84.054094 
3519.000000	84.051892 
3518.000000	84.049604 
3517.000000	84.047137 
3516.000000	84.044516 
3515.000000	84.041902 
3514.000000	84.039376 
3513.000000	84.036784 
3512.000000	84.033907 
3511.000000	84.030780 
3510.000000	84.027781 
3509.000000	84.025310 
3508.000000	84.023408 
3507.000000	84.021581 
3506.000000	84.019119 
3505.000000	84.015706 
3504.000000	84.011706 
3503.000000	84.007866 
3502.000000	84.004499 
3501.000000	84.001234 
3500.000000	83.997626 
3499.000000	83.993875 
3498.000000	83.990673 
3497.000000	83.988432 
3496.000000	83.986941 
3495.000000	83.985525 
3494.000000	83.983456 
3493.000000	83.980423 
3492.000000	83.976774 
3491.000000	83.973349 
3490.000000	83.970821 
3489.000000	83.969152 
3488.000000	83.967751 
3487.000000	83.966062 
3486.000000	83.963853 
3485.000000	83.961018 
3484.000000	83.957511 
3483.000000	83.953559 
3482.000000	83.949658 
3481.000000	83.946153 
3480.000000	83.942985 
3479.000000	83.939921 
3478.000000	83.936783 
3477.000000	83.933375 
3476.000000	83.929468 
3475.000000	83.925124 
3474.000000	83.920932 
3473.000000	83.917586 
3472.000000	83.915153 
3471.000000	83.912906 
3470.000000	83.910011 
3469.000000	83.906341 
3468.000000	83.902538 
3467.000000	83.899343 
3466.000000	83.896787 
3465.000000	83.894032 
3464.000000	83.890099 
3463.000000	83.884801 
3462.000000	83.879002 
3461.000000	83.873805 
3460.000000	83.869628 
3459.000000	83.866235 
3458.000000	83.863387 
3457.000000	83.861081 
3456.000000	83.859106 
3455.000000	83.856849 
3454.000000	83.853747 
3453.000000	83.849915 
3452.000000	83.846090 
3451.000000	83.842867 
3450.000000	83.840052 
3449.000000	83.836911 
3448.000000	83.833062 
3447.000000	83.828931 
3446.000000	83.825235 
3445.000000	83.822008 
3444.000000	83.818446 
3443.000000	83.813754 
3442.000000	83.807954 
3441.000000	83.801968 
3440.000000	83.796817 
3439.000000	83.792564 
3438.000000	83.788238 
3437.000000	83.782947 
3436.000000	83.777120 
3435.000000	83.772299 
3434.000000	83.769497 
3433.000000	83.768218 
3432.000000	83.767173 
3431.000000	83.765609 
3430.000000	83.763539 
3429.000000	83.761032 
3428.000000	83.757908 
3427.000000	83.754128 
3426.000000	83.750129 
3425.000000	83.746543 
3424.000000	83.743678 
3423.000000	83.741286 
3422.000000	83.738813 
3421.000000	83.735884 
3420.000000	83.732669 
3419.000000	83.729763 
3418.000000	83.727630 
3417.000000	83.726126 
3416.000000	83.724561 
3415.000000	83.722232 
3414.000000	83.718991 
3413.000000	83.715339 
3412.000000	83.712027 
3411.000000	83.709433 
3410.000000	83.707347 
3409.000000	83.705322 
3408.000000	83.703207 
3407.000000	83.701256 
3406.000000	83.699766 
3405.000000	83.698707 
3404.000000	83.697706 
3403.000000	83.696296 
3402.000000	83.694224 
3401.000000	83.691628 
3400.000000	83.689067 
3399.000000	83.687266 
3398.000000	83.686609 
3397.000000	83.686828 
3396.000000	83.687074 
3395.000000	83.686577 
3394.000000	83.685251 
3393.000000	83.683655 
3392.000000	83.682466 
3391.000000	83.681908 
3390.000000	83.681669 
3389.000000	83.681212 
3388.000000	83.680181 
3387.000000	83.678645 
3386.000000	83.677094 
3385.000000	83.676100 
3384.000000	83.675810 
3383.000000	83.675808 
3382.000000	83.675619 
3381.000000	83.675332 
3380.000000	83.675482 
3379.000000	83.676284 
3378.000000	83.677203 
3377.000000	83.677472 
3376.000000	83.676954 
3375.000000	83.676331 
3374.000000	83.676475 
3373.000000	83.677750 
3372.000000	83.679954 
3371.000000	83.682627 
3370.000000	83.685224 
3369.000000	83.687121 
3368.000000	83.687818 
3367.000000	83.687310 
3366.000000	83.686209 
3365.000000	83.685421 
3364.000000	83.685592 
3363.000000	83.686904 
3362.000000	83.689182 
3361.000000	83.691976 
3360.000000	83.694668 
3359.000000	83.696771 
3358.000000	83.698285 
3357.000000	83.699667 
3356.000000	83.701342 
3355.000000	83.703208 
3354.000000	83.704706 
3353.000000	83.705410 
3352.000000	83.705505 
3351.000000	83.705732 
3350.000000	83.706746 
3349.000000	83.708568 
3348.000000	83.710624 
3347.000000	83.712359 
3346.000000	83.713791 
3345.000000	83.715363 
3344.000000	83.717377 
3343.000000	83.719672 
3342.000000	83.721794 
3341.000000	83.723366 
3340.000000	83.724304 
3339.000000	83.724841 
3338.000000	83.725455 
3337.000000	83.726595 
3336.000000	83.728347 
3335.000000	83.730305 
3334.000000	83.731848 
3333.000000	83.732697 
3332.000000	83.733147 
3331.000000	83.733805 
3330.000000	83.735053 
3329.000000	83.736703 
3328.000000	83.738140 
3327.000000	83.738848 
3326.000000	83.738822 
3325.000000	83.738555 
3324.000000	83.738645 
3323.000000	83.739379 
3322.000000	83.740686 
3321.000000	83.742315 
3320.000000	83.744051 
3319.000000	83.745827 
3318.000000	83.747610 
3317.000000	83.749107 
3316.000000	83.749723 
3315.000000	83.749002 
3314.000000	83.747150 
3313.000000	83.745038 
3312.000000	83.743579 
3311.000000	83.743215 
3310.000000	83.744000 
3309.000000	83.745802 
3308.000000	83.748198 
3307.000000	83.750377 
3306.000000	83.751678 
3305.000000	83.752304 
3304.000000	83.753132 
3303.000000	83.754660 
3302.000000	83.756338 
3301.000000	83.757169 
3300.000000	83.756856 
3299.000000	83.756083 
3298.000000	83.755776 
3297.000000	83.756330 
3296.000000	83.757660 
3295.000000	83.759642 
3294.000000	83.762091 
3293.000000	83.764357 
3292.000000	83.765472 
3291.000000	83.765000 
3290.000000	83.763651 
3289.000000	83.762805 
3288.000000	83.763215 
3287.000000	83.764415 
3286.000000	83.765317 
3285.000000	83.765219 
3284.000000	83.764179 
3283.000000	83.762705 
3282.000000	83.761363 
3281.000000	83.760583 
3280.000000	83.760512 
3279.000000	83.760927 
3278.000000	83.761501 
3277.000000	83.762259 
3276.000000	83.763599 
3275.000000	83.765736 
3274.000000	83.768216 
3273.000000	83.770123 
3272.000000	83.770801 
3271.000000	83.770286 
3270.000000	83.769141 
3269.000000	83.768022 
3268.000000	83.767377 
3267.000000	83.767387 
3266.000000	83.767950 
3265.000000	83.768692 
3264.000000	83.769151 
3263.000000	83.769106 
3262.000000	83.768773 
3261.000000	83.768565 
3260.000000	83.768617 
3259.000000	83.768610 
3258.000000	83.768145 
3257.000000	83.767282 
3256.000000	83.766611 
3255.000000	83.766695 
3254.000000	83.767483 
3253.000000	83.768325 
3252.000000	83.768605 
3251.000000	83.768267 
3250.000000	83.767679 
3249.000000	83.767158 
3248.000000	83.766772 
3247.000000	83.766481 
3246.000000	83.766225 
3245.000000	83.765864 
3244.000000	83.765251 
3243.000000	83.764461 
3242.000000	83.763823 
3241.000000	83.763560 
3240.000000	83.763468 
3239.000000	83.763125 
3238.000000	83.762381 
3237.000000	83.761530 
3236.000000	83.760991 
3235.000000	83.760917 
3234.000000	83.761104 
3233.000000	83.761189 
3232.000000	83.760939 
3231.000000	83.760408 
3230.000000	83.759916 
3229.000000	83.759865 
3228.000000	83.760492 
3227.000000	83.761726 
3226.000000	83.763173 
3225.000000	83.764222 
3224.000000	83.764396 
3223.000000	83.763704 
3222.000000	83.762717 
3221.000000	83.762240 
3220.000000	83.762648 
3219.000000	83.763676 
3218.000000	83.764707 
3217.000000	83.765270 
3216.000000	83.765330 
3215.000000	83.765207 
3214.000000	83.765312 
3213.000000	83.765878 
3212.000000	83.766835 
3211.000000	83.767927 
3210.000000	83.768942 
3209.000000	83.769841 
3208.000000	83.770712 
3207.000000	83.771649 
3206.000000	83.772650 
3205.000000	83.773572 
3204.000000	83.774238 
3203.000000	83.774631 
3202.000000	83.775012 
3201.000000	83.775784 
3200.000000	83.777204 
3199.000000	83.779249 
3198.000000	83.781643 
3197.000000	83.783974 
3196.000000	83.785876 
3195.000000	83.787236 
3194.000000	83.788261 
3193.000000	83.789274 
3192.000000	83.790428 
3191.000000	83.791634 
3190.000000	83.792734 
3189.000000	83.793668 
3188.000000	83.794501 
3187.000000	83.795397 
3186.000000	83.796555 
3185.000000	83.798064 
3184.000000	83.799747 
3183.000000	83.801218 
3182.000000	83.802196 
3181.000000	83.802744 
3180.000000	83.803255 
3179.000000	83.804134 
3178.000000	83.805485 
3177.000000	83.807089 
3176.000000	83.808567 
3175.000000	83.809720 
3174.000000	83.810673 
3173.000000	83.811710 
3172.000000	83.812953 
3171.000000	83.814274 
3170.000000	83.815494 
3169.000000	83.816601 
3168.000000	83.817728 
3167.000000	83.818984 
3166.000000	83.820378 
3165.000000	83.821879 
3164.000000	83.823441 
3163.000000	83.824972 
3162.000000	83.826346 
3161.000000	83.827501 
3160.000000	83.828504 
3159.000000	83.829488 
3158.000000	83.830519 
3157.000000	83.831584 
3156.000000	83.832643 
3155.000000	83.833680 
3154.000000	83.834710 
3153.000000	83.835749 
3152.000000	83.836799 
3151.000000	83.837847 
3150.000000	83.838892 
3149.000000	83.839945 
3148.000000	83.841022 
3147.000000	83.842138 
3146.000000	83.843289 
3145.000000	83.844459 
3144.000000	83.845620 
3143.000000	83.846743 
3142.000000	83.847816 
3141.000000	83.848855 
3140.000000	83.849883 
3139.000000	83.850917 
3138.000000	83.851951 
3137.000000	83.852975 
3136.000000	83.853975 
3135.000000	83.854945 
3134.000000	83.855886 
3133.000000	83.856810 
3132.000000	83.857730 
3131.000000	83.858656 
3130.000000	83.859586 
3129.000000	83.860510 
3128.000000	83.861415 
3127.000000	83.862299 
3126.000000	83.863160 
3125.000000	83.864002 
3124.000000	83.864822 
3123.000000	83.865614 
3122.000000	83.866376 
3121.000000	83.867114 
3120.000000	83.867843 
3119.000000	83.868580 
3118.000000	83.869339 
3117.000000	83.870123 
3116.000000	83.870924 
3115.000000	83.871735 
3114.000000	83.872548 
3113.000000	83.873363 
3112.000000	83.874181 
3111.000000	83.875005 
3110.000000	83.875836 
3109.000000	83.876674 
3108.000000	83.877534 
3107.000000	83.878318 
3106.000000	83.878878 
3105.000000	83.879344 
3104.000000	83.880138 
3103.000000	83.881588 
3102.000000	83.883497 
3101.000000	83.885174 
3100.000000	83.885965 
3099.000000	83.885892 
3098.000000	83.885789 
3097.000000	83.886335 
3096.000000	83.886870 
3095.000000	83.885780 
3094.000000	83.882694 
3093.000000	83.879816 
3092.000000	83.880093 
3091.000000	83.884004 
3090.000000	83.888823 
3089.000000	83.891422 
3088.000000	83.891356 
3087.000000	83.890698 
3086.000000	83.891069 
3085.000000	83.891699 
3084.000000	83.891032 
3083.000000	83.889478 
3082.000000	83.889232 
3081.000000	83.891329 
3080.000000	83.894314 
3079.000000	83.896565 
3078.000000	83.898625 
3077.000000	83.901997 
3076.000000	83.906523 
3075.000000	83.910563 
3074.000000	83.913309 
3073.000000	83.915438 
3072.000000	83.917568 
3071.000000	83.919432 
3070.000000	83.920731 
3069.000000	83.921422 
3068.000000	83.920615 
3067.000000	83.916417 
3066.000000	83.907960 
3065.000000	83.897221 
3064.000000	83.888128 
3063.000000	83.883861 
3062.000000	83.885072 
3061.000000	83.890072 
3060.000000	83.896062 
3059.000000	83.900552 
3058.000000	83.902437 
3057.000000	83.902244 
3056.000000	83.901314 
3055.000000	83.900236 
3054.000000	83.897525 
3053.000000	83.890008 
3052.000000	83.875740 
3051.000000	83.857336 
3050.000000	83.841486 
3049.000000	83.833674 
3048.000000	83.833188 
3047.000000	83.834265 
3046.000000	83.831938 
3045.000000	83.825646 
3044.000000	83.817624 
3043.000000	83.809532 
3042.000000	83.801259 
3041.000000	83.791537 
3040.000000	83.778729 
3039.000000	83.761872 
3038.000000	83.741882 
3037.000000	83.721250 
3036.000000	83.701691 
3035.000000	83.682514 
3034.000000	83.661868 
3033.000000	83.638818 
3032.000000	83.613908 
3031.000000	83.588376 
3030.000000	83.562633 
3029.000000	83.535313 
3028.000000	83.504244 
3027.000000	83.468694 
3026.000000	83.430610 
3025.000000	83.393046 
3024.000000	83.357116 
3023.000000	83.321069 
3022.000000	83.282857 
3021.000000	83.242905 
3020.000000	83.203606 
3019.000000	83.166338 
3018.000000	83.129841 
3017.000000	83.091746 
3016.000000	83.050981 
3015.000000	83.007952 
3014.000000	82.962584 
3013.000000	82.913239 
3012.000000	82.858626 
3011.000000	82.800739 
3010.000000	82.744627 
3009.000000	82.694039 
3008.000000	82.647541 
3007.000000	82.599824 
3006.000000	82.547129 
3005.000000	82.490770 
3004.000000	82.435160 
3003.000000	82.383054 
3002.000000	82.333472 
3001.000000	82.283915 
3000.000000	82.233603 
2999.000000	82.184176 
2998.000000	82.138227 
2997.000000	82.098038 
2996.000000	82.064413 
2995.000000	82.033480 
2994.000000	81.993371 
2993.000000	81.928070 
2992.000000	81.830856 
2991.000000	81.715816 
2990.000000	81.612302 
2989.000000	81.544416 
2988.000000	81.516379 
2987.000000	81.516757 
2986.000000	81.531691 
2985.000000	81.550845 
2984.000000	81.564525 
2983.000000	81.563998 
2982.000000	81.547956 
2981.000000	81.524680 
2980.000000	81.504463 
2979.000000	81.491278 
2978.000000	81.482919 
2977.000000	81.476328 
2976.000000	81.470467 
2975.000000	81.466309 
2974.000000	81.467471 
2973.000000	81.480233 
2972.000000	81.509770 
2971.000000	81.555676 
2970.000000	81.612785 
2969.000000	81.676766 
2968.000000	81.747282 
2967.000000	81.824986 
2966.000000	81.906666 
2965.000000	81.984947 
2964.000000	82.052920 
2963.000000	82.108512 
2962.000000	82.154452 
2961.000000	82.194957 
2960.000000	82.233245 
2959.000000	82.271441 
2958.000000	82.310734 
2957.000000	82.350075 
2956.000000	82.385817 
2955.000000	82.414815 
2954.000000	82.438379 
2953.000000	82.461568 
2952.000000	82.487778 
2951.000000	82.514813 
2950.000000	82.536851 
2949.000000	82.549593 
2948.000000	82.553141 
2947.000000	82.551242 
2946.000000	82.548920 
2945.000000	82.549940 
2944.000000	82.554985 
2943.000000	82.562299 
2942.000000	82.570322 
2941.000000	82.579069 
2940.000000	82.588893 
2939.000000	82.599160 
2938.000000	82.609082 
2937.000000	82.619265 
2936.000000	82.631393 
2935.000000	82.646433 
2934.000000	82.663762 
2933.000000	82.681913 
2932.000000	82.699612 
2931.000000	82.716130 
2930.000000	82.731166 
2929.000000	82.744589 
2928.000000	82.756204 
2927.000000	82.765930 
2926.000000	82.774409 
2925.000000	82.783371 
2924.000000	82.795125 
2923.000000	82.811288 
2922.000000	82.831415 
2921.000000	82.852383 
2920.000000	82.869318 
2919.000000	82.877275 
2918.000000	82.871838 
2917.000000	82.848498 
2916.000000	82.803556 
2915.000000	82.737669 
2914.000000	82.658461 
2913.000000	82.578012 
2912.000000	82.506648 
2911.000000	82.448921 
2910.000000	82.404141 
2909.000000	82.368677 
2908.000000	82.337718 
2907.000000	82.306682 
2906.000000	82.271972 
2905.000000	82.230532 
2904.000000	82.180662 
2903.000000	82.126649 
2902.000000	82.082494 
2901.000000	82.066153 
2900.000000	82.086165 
2899.000000	82.133273 
2898.000000	82.186180 
2897.000000	82.226282 
2896.000000	82.247469 
2895.000000	82.254515 
2894.000000	82.255907 
2893.000000	82.258344 
2892.000000	82.264951 
2891.000000	82.275527 
2890.000000	82.287670 
2889.000000	82.298094 
2888.000000	82.303948 
2887.000000	82.304634 
2886.000000	82.303545 
2885.000000	82.307563 
2884.000000	82.323277 
2883.000000	82.352659 
2882.000000	82.391995 
2881.000000	82.434802 
2880.000000	82.475872 
2879.000000	82.513493 
2878.000000	82.548543 
2877.000000	82.581828 
2876.000000	82.612472 
2875.000000	82.639188 
2874.000000	82.662670 
2873.000000	82.685627 
2872.000000	82.710313 
2871.000000	82.737013 
2870.000000	82.765187 
2869.000000	82.794671 
2868.000000	82.825153 
2867.000000	82.855928 
2866.000000	82.887319 
2865.000000	82.921259 
2864.000000	82.959191 
2863.000000	83.000330 
2862.000000	83.043234 
2861.000000	83.087922 
2860.000000	83.134710 
2859.000000	83.181907 
2858.000000	83.227015 
2857.000000	83.270120 
2856.000000	83.313902 
2855.000000	83.359836 
2854.000000	83.406332 
2853.000000	83.451052 
2852.000000	83.492890 
2851.000000	83.530533 
2850.000000	83.560469 
2849.000000	83.577897 
2848.000000	83.579747 
2847.000000	83.567185 
2846.000000	83.546315 
2845.000000	83.526379 
2844.000000	83.515090 
2843.000000	83.514058 
2842.000000	83.518682 
2841.000000	83.523070 
2840.000000	83.524979 
2839.000000	83.526237 
2838.000000	83.529403 
2837.000000	83.534864 
2836.000000	83.540738 
2835.000000	83.544789 
2834.000000	83.546431 
2833.000000	83.547296 
2832.000000	83.549953 
2831.000000	83.555827 
2830.000000	83.564065 
2829.000000	83.572115 
2828.000000	83.577357 
2827.000000	83.578961 
2826.000000	83.579041 
2825.000000	83.581732 
2824.000000	83.589991 
2823.000000	83.602666 
2822.000000	83.615248 
2821.000000	83.623739 
2820.000000	83.627355 
2819.000000	83.627437 
2818.000000	83.625161 
2817.000000	83.621632 
2816.000000	83.619522 
2815.000000	83.622414 
2814.000000	83.631278 
2813.000000	83.642302 
2812.000000	83.649733 
2811.000000	83.651185 
2810.000000	83.649492 
2809.000000	83.649096 
2808.000000	83.651505 
2807.000000	83.654930 
2806.000000	83.657436 
2805.000000	83.659028 
2804.000000	83.660808 
2803.000000	83.663537 
2802.000000	83.667424 
2801.000000	83.672258 
2800.000000	83.677253 
2799.000000	83.681375 
2798.000000	83.684173 
2797.000000	83.686008 
2796.000000	83.687503 
2795.000000	83.688994 
2794.000000	83.690515 
2793.000000	83.692076 
2792.000000	83.693783 
2791.000000	83.695790 
2790.000000	83.698286 
2789.000000	83.701438 
2788.000000	83.705143 
2787.000000	83.708772 
2786.000000	83.711500 
2785.000000	83.713043 
2784.000000	83.713979 
2783.000000	83.715225 
2782.000000	83.717140 
2781.000000	83.719338 
2780.000000	83.721260 
2779.000000	83.722705 
2778.000000	83.723839 
2777.000000	83.724932 
2776.000000	83.726173 
2775.000000	83.727636 
2774.000000	83.729286 
2773.000000	83.731017 
2772.000000	83.732769 
2771.000000	83.734602 
2770.000000	83.736588 
2769.000000	83.738577 
2768.000000	83.740218 
2767.000000	83.741340 
2766.000000	83.742214 
2765.000000	83.743372 
2764.000000	83.745034 
2763.000000	83.746895 
2762.000000	83.748482 
2761.000000	83.749695 
2760.000000	83.750837 
2759.000000	83.752173 
2758.000000	83.753613 
2757.000000	83.754917 
2756.000000	83.756049 
2755.000000	83.757191 
2754.000000	83.758469 
2753.000000	83.759820 
2752.000000	83.761127 
2751.000000	83.762396 
2750.000000	83.763725 
2749.000000	83.765140 
2748.000000	83.766591 
2747.000000	83.768080 
2746.000000	83.769645 
2745.000000	83.771234 
2744.000000	83.772731 
2743.000000	83.774106 
2742.000000	83.775427 
2741.000000	83.776769 
2740.000000	83.778152 
2739.000000	83.779552 
2738.000000	83.780951 
2737.000000	83.782357 
2736.000000	83.783777 
2735.000000	83.785195 
2734.000000	83.786587 
2733.000000	83.787952 
2732.000000	83.789306 
2731.000000	83.790662 
2730.000000	83.792024 
2729.000000	83.793393 
2728.000000	83.794770 
2727.000000	83.796146 
2726.000000	83.797506 
2725.000000	83.798838 
2724.000000	83.800143 
2723.000000	83.801438 
2722.000000	83.802735 
2721.000000	83.804041 
2720.000000	83.805359 
2719.000000	83.806680 
2718.000000	83.807982 
2717.000000	83.809244 
2716.000000	83.810475 
2715.000000	83.811714 
2714.000000	83.812989 
2713.000000	83.814257 
2712.000000	83.815433 
2711.000000	83.816492 
2710.000000	83.817522 
2709.000000	83.818651 
2708.000000	83.819941 
2707.000000	83.821333 
2706.000000	83.822649 
2705.000000	83.823716 
2704.000000	83.824534 
2703.000000	83.825344 
2702.000000	83.826440 
2701.000000	83.827847 
2700.000000	83.829253 
2699.000000	83.830301 
2698.000000	83.830940 
2697.000000	83.831474 
2696.000000	83.832266 
2695.000000	83.833320 
2694.000000	83.834229 
2693.000000	83.834654 
2692.000000	83.834929 
2691.000000	83.835977 
2690.000000	83.838406 
2689.000000	83.841652 
2688.000000	83.844261 
2687.000000	83.845335 
2686.000000	83.845388 
2685.000000	83.845702 
2684.000000	83.846779 
2683.000000	83.847847 
2682.000000	83.847939 
2681.000000	83.847018 
2680.000000	83.845791 
2679.000000	83.844819 
2678.000000	83.844109 
2677.000000	83.843388 
2676.000000	83.842637 
2675.000000	83.842259 
2674.000000	83.842727 
2673.000000	83.844100 
2672.000000	83.845914 
2671.000000	83.847648 
2670.000000	83.849254 
2669.000000	83.850988 
2668.000000	83.852828 
2667.000000	83.854372 
2666.000000	83.855319 
2665.000000	83.855740 
2664.000000	83.855775 
2663.000000	83.855409 
2662.000000	83.854782 
2661.000000	83.854405 
2660.000000	83.854743 
2659.000000	83.855695 
2658.000000	83.856728 
2657.000000	83.857428 
2656.000000	83.857739 
2655.000000	83.857717 
2654.000000	83.857402 
2653.000000	83.856962 
2652.000000	83.856668 
2651.000000	83.856624 
2650.000000	83.856694 
2649.000000	83.856714 
2648.000000	83.856665 
2647.000000	83.856625 
2646.000000	83.856633 
2645.000000	83.856680 
2644.000000	83.856753 
2643.000000	83.856835 
2642.000000	83.856910 
2641.000000	83.856985 
2640.000000	83.857055 
2639.000000	83.857116 
2638.000000	83.857171 
2637.000000	83.857234 
2636.000000	83.857317 
2635.000000	83.857421 
2634.000000	83.857533 
2633.000000	83.857638 
2632.000000	83.857725 
2631.000000	83.857797 
2630.000000	83.857856 
2629.000000	83.857906 
2628.000000	83.857945 
2627.000000	83.857972 
2626.000000	83.857990 
2625.000000	83.858001 
2624.000000	83.858003 
2623.000000	83.857994 
2622.000000	83.857978 
2621.000000	83.857958 
2620.000000	83.857941 
2619.000000	83.857928 
2618.000000	83.857918 
2617.000000	83.857908 
2616.000000	83.857893 
2615.000000	83.857869 
2614.000000	83.857841 
2613.000000	83.857819 
2612.000000	83.857813 
2611.000000	83.857820 
2610.000000	83.857844 
2609.000000	83.857882 
2608.000000	83.857936 
2607.000000	83.858030 
2606.000000	83.858192 
2605.000000	83.858402 
2604.000000	83.858582 
2603.000000	83.858660 
2602.000000	83.858649 
2601.000000	83.858667 
2600.000000	83.858777 
2599.000000	83.858883 
2598.000000	83.858862 
2597.000000	83.858796 
2596.000000	83.858941 
2595.000000	83.859396 
2594.000000	83.859892 
2593.000000	83.860032 
2592.000000	83.859721 
2591.000000	83.859218 
2590.000000	83.858844 
2589.000000	83.858709 
2588.000000	83.858684 
2587.000000	83.858572 
2586.000000	83.858280 
2585.000000	83.857839 
2584.000000	83.857306 
2583.000000	83.856701 
2582.000000	83.856071 
2581.000000	83.855552 
2580.000000	83.855304 
2579.000000	83.855366 
2578.000000	83.855613 
2577.000000	83.855869 
2576.000000	83.856048 
2575.000000	83.856199 
2574.000000	83.856429 
2573.000000	83.856733 
2572.000000	83.856911 
2571.000000	83.856751 
2570.000000	83.856321 
2569.000000	83.855952 
2568.000000	83.855883 
2567.000000	83.855994 
2566.000000	83.855971 
2565.000000	83.855664 
2564.000000	83.855185 
2563.000000	83.854724 
2562.000000	83.854356 
2561.000000	83.854075 
2560.000000	83.853912 
2559.000000	83.853884 
2558.000000	83.853890 
2557.000000	83.853762 
2556.000000	83.853444 
2555.000000	83.853051 
2554.000000	83.852755 
2553.000000	83.852597 
2552.000000	83.852445 
2551.000000	83.852149 
2550.000000	83.851690 
2549.000000	83.851221 
2548.000000	83.850949 
2547.000000	83.850963 
2546.000000	83.851140 
2545.000000	83.851245 
2544.000000	83.851182 
2543.000000	83.851029 
2542.000000	83.850941 
2541.000000	83.851005 
2540.000000	83.851177 
2539.000000	83.851343 
2538.000000	83.851394 
2537.000000	83.851246 
2536.000000	83.850842 
2535.000000	83.850220 
2534.000000	83.849550 
2533.000000	83.849036 
2532.000000	83.848735 
2531.000000	83.848536 
2530.000000	83.848324 
2529.000000	83.848115 
2528.000000	83.847959 
2527.000000	83.847784 
2526.000000	83.847446 
2525.000000	83.846941 
2524.000000	83.846481 
2523.000000	83.846301 
2522.000000	83.846400 
2521.000000	83.846499 
2520.000000	83.846276 
2519.000000	83.845658 
2518.000000	83.844914 
2517.000000	83.844439 
2516.000000	83.844397 
2515.000000	83.844607 
2514.000000	83.844776 
2513.000000	83.844802 
2512.000000	83.844808 
2511.000000	83.844949 
2510.000000	83.845268 
2509.000000	83.845639 
2508.000000	83.845785 
2507.000000	83.845461 
2506.000000	83.844744 
2505.000000	83.844165 
2504.000000	83.844317 
2503.000000	83.845295 
2502.000000	83.846491 
2501.000000	83.847057 
2500.000000	83.846685 
2499.000000	83.845680 
2498.000000	83.844597 
2497.000000	83.843796 
2496.000000	83.843290 
2495.000000	83.842878 
2494.000000	83.842332 
2493.000000	83.841615 
2492.000000	83.840967 
2491.000000	83.840696 
2490.000000	83.840855 
2489.000000	83.841158 
2488.000000	83.841236 
2487.000000	83.840923 
2486.000000	83.840310 
2485.000000	83.839621 
2484.000000	83.839082 
2483.000000	83.838832 
2482.000000	83.838863 
2481.000000	83.839028 
2480.000000	83.839148 
2479.000000	83.839134 
2478.000000	83.839024 
2477.000000	83.838920 
2476.000000	83.838882 
2475.000000	83.838893 
2474.000000	83.838886 
2473.000000	83.838814 
2472.000000	83.838706 
2471.000000	83.838643 
2470.000000	83.838662 
2469.000000	83.838653 
2468.000000	83.838422 
2467.000000	83.837905 
2466.000000	83.837265 
2465.000000	83.836716 
2464.000000	83.836272 
2463.000000	83.835745 
2462.000000	83.835007 
2461.000000	83.834187 
2460.000000	83.833573 
2459.000000	83.833277 
2458.000000	83.833184 
2457.000000	83.833087 
2456.000000	83.832835 
2455.000000	83.832417 
2454.000000	83.831911 
2453.000000	83.831416 
2452.000000	83.830972 
2451.000000	83.830562 
2450.000000	83.830173 
2449.000000	83.829800 
2448.000000	83.829434 
2447.000000	83.829060 
2446.000000	83.828683 
2445.000000	83.828314 
2444.000000	83.827937 
2443.000000	83.827517 
2442.000000	83.827044 
2441.000000	83.826541 
2440.000000	83.826037 
2439.000000	83.825545 
2438.000000	83.825072 
2437.000000	83.824626 
2436.000000	83.824202 
2435.000000	83.823784 
2434.000000	83.823360 
2433.000000	83.822930 
2432.000000	83.822501 
2431.000000	83.822080 
2430.000000	83.821673 
2429.000000	83.821283 
2428.000000	83.820912 
2427.000000	83.820559 
2426.000000	83.820223 
2425.000000	83.819900 
2424.000000	83.819591 
2423.000000	83.819296 
2422.000000	83.819018 
2421.000000	83.818754 
2420.000000	83.818501 
2419.000000	83.818255 
2418.000000	83.818017 
2417.000000	83.817786 
2416.000000	83.817569 
2415.000000	83.817371 
2414.000000	83.817200 
2413.000000	83.817064 
2412.000000	83.816961 
2411.000000	83.816883 
2410.000000	83.816821 
2409.000000	83.816773 
2408.000000	83.816742 
2407.000000	83.816725 
2406.000000	83.816720 
2405.000000	83.816718 
2404.000000	83.816716 
2403.000000	83.816711 
2402.000000	83.816709 
2401.000000	83.816717 
2400.000000	83.816743 
2399.000000	83.816789 
2398.000000	83.816851 
2397.000000	83.816926 
2396.000000	83.817010 
2395.000000	83.817109 
2394.000000	83.817231 
2393.000000	83.817381 
2392.000000	83.817555 
2391.000000	83.817738 
2390.000000	83.817911 
2389.000000	83.818055 
2388.000000	83.818169 
2387.000000	83.818263 
2386.000000	83.818355 
2385.000000	83.818458 
2384.000000	83.818570 
2383.000000	83.818688 
2382.000000	83.818809 
2381.000000	83.818932 
2380.000000	83.819055 
2379.000000	83.819178 
2378.000000	83.819298 
2377.000000	83.819417 
2376.000000	83.819536 
2375.000000	83.819656 
2374.000000	83.819773 
2373.000000	83.819877 
2372.000000	83.819957 
2371.000000	83.820000 
2370.000000	83.820004 
2369.000000	83.819978 
2368.000000	83.819934 
2367.000000	83.819879 
2366.000000	83.819807 
2365.000000	83.819710 
2364.000000	83.819590 
2363.000000	83.819460 
2362.000000	83.819333 
2361.000000	83.819222 
2360.000000	83.819131 
2359.000000	83.819051 
2358.000000	83.818968 
2357.000000	83.818871 
2356.000000	83.818758 
2355.000000	83.818630 
2354.000000	83.818488 
2353.000000	83.818329 
2352.000000	83.818142 
2351.000000	83.817914 
2350.000000	83.817639 
2349.000000	83.817330 
2348.000000	83.817022 
2347.000000	83.816759 
2346.000000	83.816566 
2345.000000	83.816436 
2344.000000	83.816340 
2343.000000	83.816243 
2342.000000	83.816131 
2341.000000	83.816009 
2340.000000	83.815887 
2339.000000	83.815773 
2338.000000	83.815667 
2337.000000	83.815562 
2336.000000	83.815457 
2335.000000	83.815351 
2334.000000	83.815244 
2333.000000	83.815135 
2332.000000	83.815023 
2331.000000	83.814914 
2330.000000	83.814818 
2329.000000	83.814748 
2328.000000	83.814711 
2327.000000	83.814709 
2326.000000	83.814733 
2325.000000	83.814769 
2324.000000	83.814814 
2323.000000	83.814870 
2322.000000	83.814942 
2321.000000	83.815026 
2320.000000	83.815116 
2319.000000	83.815202 
2318.000000	83.815277 
2317.000000	83.815340 
2316.000000	83.815394 
2315.000000	83.815447 
2314.000000	83.815509 
2313.000000	83.815583 
2312.000000	83.815667 
2311.000000	83.815759 
2310.000000	83.815856 
2309.000000	83.815958 
2308.000000	83.816068 
2307.000000	83.816187 
2306.000000	83.816308 
2305.000000	83.816412 
2304.000000	83.816480 
2303.000000	83.816500 
2302.000000	83.816481 
2301.000000	83.816441 
2300.000000	83.816395 
2299.000000	83.816351 
2298.000000	83.816306 
2297.000000	83.816254 
2296.000000	83.816189 
2295.000000	83.816112 
2294.000000	83.816026 
2293.000000	83.815936 
2292.000000	83.815842 
2291.000000	83.815743 
2290.000000	83.815637 
2289.000000	83.815517 
2288.000000	83.815379 
2287.000000	83.815218 
2286.000000	83.815032 
2285.000000	83.814825 
2284.000000	83.814602 
2283.000000	83.814373 
2282.000000	83.814143 
2281.000000	83.813918 
2280.000000	83.813698 
2279.000000	83.813485 
2278.000000	83.813278 
2277.000000	83.813074 
2276.000000	83.812864 
2275.000000	83.812646 
2274.000000	83.812424 
2273.000000	83.812209 
2272.000000	83.812010 
2271.000000	83.811827 
2270.000000	83.811654 
2269.000000	83.811485 
2268.000000	83.811320 
2267.000000	83.811167 
2266.000000	83.811034 
2265.000000	83.810924 
2264.000000	83.810831 
2263.000000	83.810745 
2262.000000	83.810662 
2261.000000	83.810583 
2260.000000	83.810511 
2259.000000	83.810453 
2258.000000	83.810407 
2257.000000	83.810370 
2256.000000	83.810340 
2255.000000	83.810316 
2254.000000	83.810301 
2253.000000	83.810302 
2252.000000	83.810323 
2251.000000	83.810365 
2250.000000	83.810424 
2249.000000	83.810497 
2248.000000	83.810582 
2247.000000	83.810682 
2246.000000	83.810808 
2245.000000	83.810968 
2244.000000	83.811163 
2243.000000	83.811384 
2242.000000	83.811621 
2241.000000	83.811863 
2240.000000	83.812107 
2239.000000	83.812350 
2238.000000	83.812590 
2237.000000	83.812829 
2236.000000	83.813067 
2235.000000	83.813307 
2234.000000	83.813555 
2233.000000	83.813819 
2232.000000	83.814101 
2231.000000	83.814392 
2230.000000	83.814677 
2229.000000	83.814944 
2228.000000	83.815187 
2227.000000	83.815410 
2226.000000	83.815619 
2225.000000	83.815816 
2224.000000	83.816003 
2223.000000	83.816175 
2222.000000	83.816328 
2221.000000	83.816463 
2220.000000	83.816600 
2219.000000	83.816757 
2218.000000	83.816944 
2217.000000	83.817169 
2216.000000	83.817434 
2215.000000	83.817707 
2214.000000	83.817942 
2213.000000	83.818112 
2212.000000	83.818235 
2211.000000	83.818356 
2210.000000	83.818497 
2209.000000	83.818645 
2208.000000	83.818765 
2207.000000	83.818834 
2206.000000	83.818855 
2205.000000	83.818888 
2204.000000	83.818995 
2203.000000	83.819182 
2202.000000	83.819383 
2201.000000	83.819511 
2200.000000	83.819528 
2199.000000	83.819451 
2198.000000	83.819340 
2197.000000	83.819253 
2196.000000	83.819224 
2195.000000	83.819247 
2194.000000	83.819277 
2193.000000	83.819272 
2192.000000	83.819222 
2191.000000	83.819137 
2190.000000	83.819033 
2189.000000	83.818930 
2188.000000	83.818845 
2187.000000	83.818771 
2186.000000	83.818689 
2185.000000	83.818606 
2184.000000	83.818541 
2183.000000	83.818498 
2182.000000	83.818461 
2181.000000	83.818417 
2180.000000	83.818367 
2179.000000	83.818317 
2178.000000	83.818265 
2177.000000	83.818210 
2176.000000	83.818152 
2175.000000	83.818092 
2174.000000	83.818032 
2173.000000	83.817973 
2172.000000	83.817916 
2171.000000	83.817868 
2170.000000	83.817835 
2169.000000	83.817817 
2168.000000	83.817807 
2167.000000	83.817792 
2166.000000	83.817762 
2165.000000	83.817712 
2164.000000	83.817645 
2163.000000	83.817568 
2162.000000	83.817484 
2161.000000	83.817393 
2160.000000	83.817288 
2159.000000	83.817168 
2158.000000	83.817037 
2157.000000	83.816902 
2156.000000	83.816767 
2155.000000	83.816637 
2154.000000	83.816508 
2153.000000	83.816375 
2152.000000	83.816233 
2151.000000	83.816084 
2150.000000	83.815935 
2149.000000	83.815797 
2148.000000	83.815676 
2147.000000	83.815571 
2146.000000	83.815468 
2145.000000	83.815359 
2144.000000	83.815241 
2143.000000	83.815129 
2142.000000	83.815041 
2141.000000	83.814987 
2140.000000	83.814960 
2139.000000	83.814941 
2138.000000	83.814921 
2137.000000	83.814897 
2136.000000	83.814879 
2135.000000	83.814872 
2134.000000	83.814870 
2133.000000	83.814852 
2132.000000	83.814802 
2131.000000	83.814729 
2130.000000	83.814654 
2129.000000	83.814597 
2128.000000	83.814559 
2127.000000	83.814539 
2126.000000	83.814537 
2125.000000	83.814558 
2124.000000	83.814601 
2123.000000	83.814676 
2122.000000	83.814794 
2121.000000	83.814959 
2120.000000	83.815158 
2119.000000	83.815372 
2118.000000	83.815591 
2117.000000	83.815820 
2116.000000	83.816067 
2115.000000	83.816339 
2114.000000	83.816638 
2113.000000	83.816959 
2112.000000	83.817293 
2111.000000	83.817636 
2110.000000	83.817987 
2109.000000	83.818348 
2108.000000	83.818723 
2107.000000	83.819113 
2106.000000	83.819513 
2105.000000	83.819919 
2104.000000	83.820327 
2103.000000	83.820745 
2102.000000	83.821181 
2101.000000	83.821638 
2100.000000	83.822111 
2099.000000	83.822586 
2098.000000	83.823055 
2097.000000	83.823514 
2096.000000	83.823958 
2095.000000	83.824390 
2094.000000	83.824812 
2093.000000	83.825232 
2092.000000	83.825659 
2091.000000	83.826105 
2090.000000	83.826561 
2089.000000	83.827000 
2088.000000	83.827400 
2087.000000	83.827766 
2086.000000	83.828121 
2085.000000	83.828476 
2084.000000	83.828854 
2083.000000	83.829302 
2082.000000	83.829840 
2081.000000	83.830397 
2080.000000	83.830857 
2079.000000	83.831145 
2078.000000	83.831222 
2077.000000	83.831077 
2076.000000	83.830807 
2075.000000	83.830667 
2074.000000	83.830871 
2073.000000	83.831343 
2072.000000	83.831720 
2071.000000	83.831684 
2070.000000	83.831200 
2069.000000	83.830497 
2068.000000	83.829924 
2067.000000	83.829744 
2066.000000	83.829975 
2065.000000	83.830358 
2064.000000	83.830612 
2063.000000	83.830741 
2062.000000	83.830947 
2061.000000	83.831237 
2060.000000	83.831390 
2059.000000	83.831271 
2058.000000	83.830888 
2057.000000	83.830210 
2056.000000	83.829167 
2055.000000	83.827926 
2054.000000	83.826919 
2053.000000	83.826406 
2052.000000	83.826190 
2051.000000	83.825837 
2050.000000	83.825091 
2049.000000	83.824037 
2048.000000	83.822933 
2047.000000	83.821973 
2046.000000	83.821177 
2045.000000	83.820480 
2044.000000	83.819854 
2043.000000	83.819291 
2042.000000	83.818708 
2041.000000	83.817987 
2040.000000	83.817135 
2039.000000	83.816305 
2038.000000	83.815596 
2037.000000	83.814926 
2036.000000	83.814147 
2035.000000	83.813209 
2034.000000	83.812199 
2033.000000	83.811253 
2032.000000	83.810431 
2031.000000	83.809701 
2030.000000	83.808962 
2029.000000	83.808095 
2028.000000	83.807036 
2027.000000	83.805873 
2026.000000	83.804806 
2025.000000	83.803973 
2024.000000	83.803369 
2023.000000	83.802875 
2022.000000	83.802299 
2021.000000	83.801443 
2020.000000	83.800302 
2019.000000	83.799214 
2018.000000	83.798582 
2017.000000	83.798401 
2016.000000	83.798187 
2015.000000	83.797552 
2014.000000	83.796593 
2013.000000	83.795655 
2012.000000	83.794837 
2011.000000	83.794007 
2010.000000	83.793144 
2009.000000	83.792338 
2008.000000	83.791555 
2007.000000	83.790716 
2006.000000	83.789906 
2005.000000	83.789205 
2004.000000	83.788416 
2003.000000	83.787309 
2002.000000	83.786114 
2001.000000	83.785368 
2000.000000	83.785195 
1999.000000	83.785132 
1998.000000	83.784732 
1997.000000	83.784012 
1996.000000	83.783162 
1995.000000	83.782243 
1994.000000	83.781359 
1993.000000	83.780837 
1992.000000	83.781013 
1991.000000	83.781931 
1990.000000	83.783295 
1989.000000	83.784604 
1988.000000	83.785334 
1987.000000	83.785198 
1986.000000	83.784359 
1985.000000	83.783319 
1984.000000	83.782484 
1983.000000	83.781890 
1982.000000	83.781362 
1981.000000	83.780785 
1980.000000	83.780255 
1979.000000	83.780054 
1978.000000	83.780426 
1977.000000	83.781271 
1976.000000	83.782029 
1975.000000	83.782116 
1974.000000	83.781483 
1973.000000	83.780623 
1972.000000	83.780078 
1971.000000	83.779941 
1970.000000	83.779951 
1969.000000	83.779878 
1968.000000	83.779729 
1967.000000	83.779640 
1966.000000	83.779665 
1965.000000	83.779703 
1964.000000	83.779613 
1963.000000	83.779327 
1962.000000	83.778846 
1961.000000	83.778187 
1960.000000	83.777415 
1959.000000	83.776695 
1958.000000	83.776200 
1957.000000	83.775929 
1956.000000	83.775694 
1955.000000	83.775289 
1954.000000	83.774697 
1953.000000	83.774064 
1952.000000	83.773546 
1951.000000	83.773176 
1950.000000	83.772890 
1949.000000	83.772604 
1948.000000	83.772257 
1947.000000	83.771817 
1946.000000	83.771295 
1945.000000	83.770763 
1944.000000	83.770314 
1943.000000	83.769997 
1942.000000	83.769790 
1941.000000	83.769616 
1940.000000	83.769391 
1939.000000	83.769052 
1938.000000	83.768566 
1937.000000	83.767949 
1936.000000	83.767285 
1935.000000	83.766700 
1934.000000	83.766270 
1933.000000	83.765957 
1932.000000	83.765619 
1931.000000	83.765138 
1930.000000	83.764547 
1929.000000	83.763974 
1928.000000	83.763473 
1927.000000	83.762937 
1926.000000	83.762265 
1925.000000	83.761581 
1924.000000	83.761151 
1923.000000	83.761109 
1922.000000	83.761284 
1921.000000	83.761327 
1920.000000	83.761093 
1919.000000	83.760712 
1918.000000	83.760412 
1917.000000	83.760325 
1916.000000	83.760442 
1915.000000	83.760677 
1914.000000	83.760914 
1913.000000	83.760984 
1912.000000	83.760743 
1911.000000	83.760269 
1910.000000	83.759846 
1909.000000	83.759671 
1908.000000	83.759660 
1907.000000	83.759432 
1906.000000	83.758630 
1905.000000	83.757334 
1904.000000	83.756102 
1903.000000	83.755601 
1902.000000	83.755975 
1901.000000	83.756657 
1900.000000	83.756960 
1899.000000	83.756682 
1898.000000	83.756196 
1897.000000	83.756063 
1896.000000	83.756483 
1895.000000	83.757111 
1894.000000	83.757383 
1893.000000	83.757142 
1892.000000	83.756987 
1891.000000	83.757743 
1890.000000	83.759523 
1889.000000	83.761486 
1888.000000	83.762541 
1887.000000	83.762227 
1886.000000	83.761029 
1885.000000	83.759916 
1884.000000	83.759459 
1883.000000	83.759413 
1882.000000	83.759301 
1881.000000	83.759498 
1880.000000	83.761229 
1879.000000	83.764910 
1878.000000	83.768979 
1877.000000	83.771193 
1876.000000	83.771035 
1875.000000	83.770111 
1874.000000	83.770159 
1873.000000	83.771388 
1872.000000	83.773113 
1871.000000	83.775073 
1870.000000	83.777360 
1869.000000	83.779673 
1868.000000	83.781755 
1867.000000	83.783937 
1866.000000	83.786404 
1865.000000	83.788703 
1864.000000	83.790292 
1863.000000	83.791379 
1862.000000	83.792967 
1861.000000	83.795932 
1860.000000	83.800258 
1859.000000	83.805084 
1858.000000	83.809226 
1857.000000	83.811861 
1856.000000	83.813124 
1855.000000	83.814122 
1854.000000	83.816063 
1853.000000	83.819140 
1852.000000	83.822570 
1851.000000	83.825487 
1850.000000	83.827624 
1849.000000	83.829389 
1848.000000	83.831418 
1847.000000	83.834163 
1846.000000	83.837646 
1845.000000	83.841227 
1844.000000	83.844098 
1843.000000	83.846443 
1842.000000	83.848946 
1841.000000	83.851624 
1840.000000	83.854069 
1839.000000	83.855878 
1838.000000	83.857090 
1837.000000	83.858158 
1836.000000	83.859362 
1835.000000	83.860803 
1834.000000	83.862842 
1833.000000	83.866001 
1832.000000	83.870221 
1831.000000	83.874166 
1830.000000	83.876056 
1829.000000	83.875818 
1828.000000	83.875221 
1827.000000	83.875823 
1826.000000	83.878017 
1825.000000	83.881135 
1824.000000	83.883945 
1823.000000	83.885782 
1822.000000	83.887000 
1821.000000	83.888339 
1820.000000	83.890133 
1819.000000	83.892385 
1818.000000	83.895125 
1817.000000	83.898050 
1816.000000	83.900315 
1815.000000	83.901575 
1814.000000	83.902735 
1813.000000	83.905194 
1812.000000	83.909288 
1811.000000	83.913698 
1810.000000	83.916647 
1809.000000	83.917413 
1808.000000	83.916914 
1807.000000	83.916840 
1806.000000	83.918188 
1805.000000	83.921045 
1804.000000	83.925440 
1803.000000	83.931665 
1802.000000	83.939140 
1801.000000	83.945704 
1800.000000	83.949069 
1799.000000	83.949134 
1798.000000	83.948259 
1797.000000	83.948767 
1796.000000	83.951199 
1795.000000	83.955046 
1794.000000	83.960089 
1793.000000	83.966607 
1792.000000	83.975029 
1791.000000	83.985279 
1790.000000	83.995346 
1789.000000	84.002540 
1788.000000	84.006392 
1787.000000	84.008675 
1786.000000	84.011829 
1785.000000	84.017214 
1784.000000	84.023944 
1783.000000	84.030191 
1782.000000	84.035523 
1781.000000	84.041269 
1780.000000	84.048368 
1779.000000	84.055694 
1778.000000	84.061694 
1777.000000	84.066340 
1776.000000	84.070774 
1775.000000	84.075494 
1774.000000	84.079945 
1773.000000	84.083029 
1772.000000	84.084754 
1771.000000	84.088363 
1770.000000	84.096930 
1769.000000	84.110156 
1768.000000	84.125386 
1767.000000	84.138233 
1766.000000	84.145558 
1765.000000	84.148825 
1764.000000	84.152114 
1763.000000	84.157818 
1762.000000	84.165107 
1761.000000	84.171960 
1760.000000	84.177183 
1759.000000	84.181493 
1758.000000	84.187122 
1757.000000	84.194579 
1756.000000	84.201089 
1755.000000	84.203178 
1754.000000	84.201214 
1753.000000	84.199792 
1752.000000	84.203551 
1751.000000	84.213540 
1750.000000	84.226565 
1749.000000	84.237272 
1748.000000	84.242068 
1747.000000	84.241531 
1746.000000	84.239608 
1745.000000	84.241589 
1744.000000	84.249797 
1743.000000	84.260942 
1742.000000	84.269264 
1741.000000	84.271112 
1740.000000	84.266219 
1739.000000	84.258060 
1738.000000	84.251564 
1737.000000	84.248308 
1736.000000	84.248008 
1735.000000	84.247576 
1734.000000	84.242663 
1733.000000	84.238773 
1732.000000	84.241013 
1731.000000	84.245518 
1730.000000	84.249606 
1729.000000	84.251154 
1728.000000	84.248823 
1727.000000	84.243331 
1726.000000	84.235812 
1725.000000	84.227671 
1724.000000	84.220326 
1723.000000	84.214959 
1722.000000	84.211325 
1721.000000	84.207436 
1720.000000	84.201799 
1719.000000	84.193539 
1718.000000	84.182178 
1717.000000	84.171702 
1716.000000	84.167588 
1715.000000	84.168164 
1714.000000	84.168452 
1713.000000	84.166174 
1712.000000	84.162582 
1711.000000	84.160800 
1710.000000	84.161644 
1709.000000	84.162887 
1708.000000	84.162991 
1707.000000	84.162514 
1706.000000	84.161884 
1705.000000	84.161620 
1704.000000	84.164497 
1703.000000	84.173470 
1702.000000	84.190158 
1701.000000	84.207024 
1700.000000	84.209877 
1699.000000	84.205328 
1698.000000	84.207748 
1697.000000	84.219756 
1696.000000	84.237786 
1695.000000	84.255115 
1694.000000	84.268618 
1693.000000	84.276821 
1692.000000	84.282308 
1691.000000	84.290701 
1690.000000	84.306033 
1689.000000	84.327378 
1688.000000	84.347667 
1687.000000	84.359954 
1686.000000	84.365675 
1685.000000	84.371133 
1684.000000	84.382641 
1683.000000	84.407048 
1682.000000	84.436990 
1681.000000	84.460809 
1680.000000	84.479583 
1679.000000	84.495006 
1678.000000	84.508654 
1677.000000	84.525022 
1676.000000	84.545374 
1675.000000	84.564329 
1674.000000	84.578522 
1673.000000	84.590667 
1672.000000	84.603022 
1671.000000	84.614366 
1670.000000	84.622433 
1669.000000	84.631222 
1668.000000	84.646821 
1667.000000	84.665846 
1666.000000	84.682966 
1665.000000	84.698880 
1664.000000	84.714489 
1663.000000	84.727002 
1662.000000	84.735532 
1661.000000	84.744097 
1660.000000	84.753990 
1659.000000	84.761335 
1658.000000	84.763025 
1657.000000	84.761327 
1656.000000	84.760906 
1655.000000	84.763909 
1654.000000	84.764969 
1653.000000	84.758021 
1652.000000	84.759909 
1651.000000	84.773248 
1650.000000	84.779621 
1649.000000	84.781032 
1648.000000	84.782012 
1647.000000	84.782000 
1646.000000	84.782572 
1645.000000	84.786411 
1644.000000	84.789984 
1643.000000	84.790877 
1642.000000	84.789484 
1641.000000	84.786001 
1640.000000	84.782437 
1639.000000	84.781259 
1638.000000	84.783337 
1637.000000	84.786384 
1636.000000	84.785880 
1635.000000	84.783747 
1634.000000	84.786335 
1633.000000	84.790652 
1632.000000	84.793489 
1631.000000	84.798088 
1630.000000	84.805537 
1629.000000	84.812960 
1628.000000	84.818295 
1627.000000	84.824119 
1626.000000	84.833197 
1625.000000	84.843963 
1624.000000	84.851413 
1623.000000	84.852371 
1622.000000	84.851093 
1621.000000	84.853682 
1620.000000	84.861470 
1619.000000	84.873229 
1618.000000	84.885679 
1617.000000	84.893067 
1616.000000	84.896827 
1615.000000	84.905134 
1614.000000	84.917123 
1613.000000	84.927015 
1612.000000	84.932447 
1611.000000	84.933667 
1610.000000	84.933451 
1609.000000	84.936412 
1608.000000	84.945353 
1607.000000	84.958569 
1606.000000	84.971766 
1605.000000	84.982106 
1604.000000	84.988834 
1603.000000	84.991554 
1602.000000	84.991532 
1601.000000	84.992160 
1600.000000	84.995769 
1599.000000	85.001827 
1598.000000	85.008447 
1597.000000	85.014114 
1596.000000	85.016887 
1595.000000	85.014432 
1594.000000	85.006984 
1593.000000	84.998773 
1592.000000	84.994301 
1591.000000	84.993787 
1590.000000	84.993815 
1589.000000	84.991930 
1588.000000	84.988908 
1587.000000	84.986443 
1586.000000	84.984565 
1585.000000	84.981724 
1584.000000	84.976738 
1583.000000	84.969036 
1582.000000	84.959302 
1581.000000	84.950212 
1580.000000	84.943962 
1579.000000	84.939332 
1578.000000	84.931869 
1577.000000	84.915801 
1576.000000	84.890979 
1575.000000	84.870026 
1574.000000	84.861209 
1573.000000	84.859161 
1572.000000	84.858219 
1571.000000	84.853929 
1570.000000	84.842475 
1569.000000	84.827575 
1568.000000	84.817098 
1567.000000	84.810282 
1566.000000	84.802544 
1565.000000	84.792717 
1564.000000	84.782335 
1563.000000	84.773586 
1562.000000	84.768028 
1561.000000	84.766748 
1560.000000	84.764987 
1559.000000	84.748207 
1558.000000	84.728083 
1557.000000	84.723511 
1556.000000	84.723124 
1555.000000	84.722851 
1554.000000	84.721220 
1553.000000	84.715250 
1552.000000	84.705670 
1551.000000	84.697216 
1550.000000	84.694703 
1549.000000	84.697104 
1548.000000	84.699171 
1547.000000	84.698534 
1546.000000	84.697524 
1545.000000	84.700261 
1544.000000	84.709993 
1543.000000	84.726776 
1542.000000	84.746886 
1541.000000	84.760357 
1540.000000	84.754256 
1539.000000	84.734236 
1538.000000	84.715824 
1537.000000	84.698025 
1536.000000	84.677224 
1535.000000	84.652257 
1534.000000	84.622148 
1533.000000	84.592297 
1532.000000	84.569833 
1531.000000	84.551412 
1530.000000	84.531669 
1529.000000	84.511784 
1528.000000	84.496461 
1527.000000	84.489196 
1526.000000	84.487577 
1525.000000	84.484195 
1524.000000	84.474238 
1523.000000	84.459648 
1522.000000	84.445829 
1521.000000	84.438460 
1520.000000	84.437060 
1519.000000	84.433475 
1518.000000	84.426042 
1517.000000	84.420538 
1516.000000	84.419628 
1515.000000	84.419559 
1514.000000	84.415536 
1513.000000	84.408374 
1512.000000	84.400842 
1511.000000	84.394169 
1510.000000	84.388887 
1509.000000	84.386084 
1508.000000	84.388377 
1507.000000	84.395341 
1506.000000	84.401235 
1505.000000	84.399209 
1504.000000	84.387893 
1503.000000	84.374288 
1502.000000	84.366264 
1501.000000	84.365973 
1500.000000	84.369773 
1499.000000	84.371354 
1498.000000	84.367637 
1497.000000	84.361096 
1496.000000	84.357097 
1495.000000	84.357507 
1494.000000	84.358265 
1493.000000	84.355980 
1492.000000	84.352291 
1491.000000	84.352562 
1490.000000	84.361990 
1489.000000	84.377986 
1488.000000	84.390087 
1487.000000	84.392373 
1486.000000	84.387826 
1485.000000	84.381120 
1484.000000	84.375916 
1483.000000	84.375452 
1482.000000	84.381951 
1481.000000	84.393739 
1480.000000	84.405319 
1479.000000	84.413970 
1478.000000	84.422859 
1477.000000	84.436472 
1476.000000	84.455212 
1475.000000	84.476970 
1474.000000	84.501151 
1473.000000	84.528266 
1472.000000	84.555286 
1471.000000	84.575688 
1470.000000	84.586404 
1469.000000	84.591918 
1468.000000	84.599808 
1467.000000	84.614377 
1466.000000	84.634154 
1465.000000	84.652578 
1464.000000	84.663472 
1463.000000	84.665350 
1462.000000	84.660373 
1461.000000	84.651956 
1460.000000	84.643257 
1459.000000	84.636428 
1458.000000	84.630655 
1457.000000	84.621908 
1456.000000	84.606964 
1455.000000	84.584451 
1454.000000	84.558971 
1453.000000	84.539694 
1452.000000	84.528528 
1451.000000	84.522273 
1450.000000	84.520229 
1449.000000	84.525573 
1448.000000	84.539301 
1447.000000	84.555703 
1446.000000	84.566207 
1445.000000	84.567047 
1444.000000	84.560335 
1443.000000	84.550897 
1442.000000	84.544143 
1441.000000	84.542338 
1440.000000	84.543934 
1439.000000	84.547518 
1438.000000	84.554757 
1437.000000	84.566916 
1436.000000	84.578803 
1435.000000	84.581623 
1434.000000	84.574771 
1433.000000	84.566221 
1432.000000	84.561481 
1431.000000	84.559442 
1430.000000	84.556494 
1429.000000	84.551159 
1428.000000	84.544517 
1427.000000	84.538603 
1426.000000	84.534871 
1425.000000	84.533053 
1424.000000	84.530096 
1423.000000	84.522007 
1422.000000	84.507804 
1421.000000	84.489929 
1420.000000	84.472292 
1419.000000	84.458584 
1418.000000	84.448229 
1417.000000	84.434094 
1416.000000	84.411539 
1415.000000	84.382992 
1414.000000	84.352522 
1413.000000	84.322723 
1412.000000	84.295536 
1411.000000	84.272863 
1410.000000	84.254386 
1409.000000	84.237002 
1408.000000	84.219400 
1407.000000	84.205863 
1406.000000	84.203254 
1405.000000	84.214834 
1404.000000	84.236554 
1403.000000	84.259560 
1402.000000	84.278123 
1401.000000	84.293340 
1400.000000	84.309134 
1399.000000	84.324399 
1398.000000	84.328219 
1397.000000	84.307027 
1396.000000	84.259507 
1395.000000	84.207516 
1394.000000	84.184513 
1393.000000	84.202833 
1392.000000	84.245768 
1391.000000	84.288215 
1390.000000	84.315379 
1389.000000	84.325499 
1388.000000	84.323844 
1387.000000	84.316742 
1386.000000	84.308341 
1385.000000	84.300869 
1384.000000	84.296389 
1383.000000	84.296215 
1382.000000	84.300052 
1381.000000	84.307076 
1380.000000	84.317329 
1379.000000	84.331023 
1378.000000	84.347180 
1377.000000	84.364447 
1376.000000	84.382767 
1375.000000	84.402927 
1374.000000	84.424761 
1373.000000	84.446849 
1372.000000	84.468346 
1371.000000	84.490775 
1370.000000	84.516575 
1369.000000	84.545613 
1368.000000	84.574058 
1367.000000	84.597615 
1366.000000	84.615891 
1365.000000	84.632988 
1364.000000	84.654005 
1363.000000	84.680516 
1362.000000	84.708366 
1361.000000	84.730729 
1360.000000	84.744557 
1359.000000	84.752854 
1358.000000	84.761609 
1357.000000	84.775708 
1356.000000	84.795803 
1355.000000	84.817172 
1354.000000	84.832752 
1353.000000	84.839586 
1352.000000	84.841480 
1351.000000	84.844502 
1350.000000	84.851719 
1349.000000	84.861033 
1348.000000	84.867531 
1347.000000	84.868894 
1346.000000	84.866938 
1345.000000	84.864175 
1344.000000	84.861542 
1343.000000	84.859791 
1342.000000	84.860628 
1341.000000	84.864987 
1340.000000	84.871512 
1339.000000	84.878024 
1338.000000	84.883644 
1337.000000	84.888564 
1336.000000	84.892551 
1335.000000	84.894765 
1334.000000	84.895200 
1333.000000	84.895419 
1332.000000	84.897597 
1331.000000	84.903338 
1330.000000	84.912861 
1329.000000	84.924087 
1328.000000	84.933029 
1327.000000	84.936701 
1326.000000	84.936262 
1325.000000	84.936445 
1324.000000	84.941586 
1323.000000	84.952463 
1322.000000	84.965725 
1321.000000	84.975785 
1320.000000	84.978744 
1319.000000	84.976132 
1318.000000	84.974108 
1317.000000	84.977508 
1316.000000	84.985679 
1315.000000	84.994830 
1314.000000	85.002214 
1313.000000	85.006593 
1312.000000	85.006776 
1311.000000	85.002712 
1310.000000	84.997572 
1309.000000	84.995637 
1308.000000	84.997632 
1307.000000	85.000158 
1306.000000	85.000170 
1305.000000	84.998388 
1304.000000	84.997808 
1303.000000	85.000450 
1302.000000	85.005780 
1301.000000	85.010875 
1300.000000	85.011914 
1299.000000	85.007256 
1298.000000	84.999519 
1297.000000	84.993470 
1296.000000	84.991624 
1295.000000	84.992996 
1294.000000	84.995684 
1293.000000	84.998381 
1292.000000	84.999346 
1291.000000	84.996645 
1290.000000	84.990580 
1289.000000	84.984036 
1288.000000	84.978984 
1287.000000	84.973885 
1286.000000	84.966028 
1285.000000	84.955251 
1284.000000	84.944231 
1283.000000	84.936018 
1282.000000	84.931428 
1281.000000	84.928477 
1280.000000	84.924096 
1279.000000	84.916374 
1278.000000	84.905493 
1277.000000	84.892965 
1276.000000	84.879811 
1275.000000	84.865710 
1274.000000	84.850298 
1273.000000	84.834865 
1272.000000	84.821995 
1271.000000	84.813057 
1270.000000	84.806156 
1269.000000	84.797411 
1268.000000	84.784918 
1267.000000	84.771022 
1266.000000	84.759586 
1265.000000	84.750640 
1264.000000	84.739038 
1263.000000	84.719534 
1262.000000	84.692652 
1261.000000	84.664535 
1260.000000	84.640755 
1259.000000	84.620913 
1258.000000	84.599874 
1257.000000	84.574019 
1256.000000	84.545584 
1255.000000	84.520228 
1254.000000	84.500486 
1253.000000	84.483073 
1252.000000	84.463859 
1251.000000	84.444506 
1250.000000	84.431776 
1249.000000	84.430235 
1248.000000	84.437721 
1247.000000	84.447547 
1246.000000	84.452074 
1245.000000	84.443739 
1244.000000	84.418114 
1243.000000	84.381656 
1242.000000	84.353691 
1241.000000	84.352215 
1240.000000	84.375590 
1239.000000	84.401349 
1238.000000	84.406831 
1237.000000	84.388251 
1236.000000	84.357440 
1235.000000	84.326001 
1234.000000	84.297342 
1233.000000	84.271360 
1232.000000	84.249053 
1231.000000	84.230321 
1230.000000	84.212068 
1229.000000	84.191776 
1228.000000	84.170976 
1227.000000	84.153279 
1226.000000	84.140326 
1225.000000	84.130836 
1224.000000	84.122148 
1223.000000	84.111553 
1222.000000	84.097463 
1221.000000	84.080493 
1220.000000	84.062559 
1219.000000	84.044284 
1218.000000	84.024007 
1217.000000	83.999587 
1216.000000	83.970276 
1215.000000	83.936938 
1214.000000	83.901739 
1213.000000	83.867114 
1212.000000	83.832853 
1211.000000	83.794596 
1210.000000	83.748248 
1209.000000	83.696482 
1208.000000	83.647585 
1207.000000	83.605887 
1206.000000	83.566181 
1205.000000	83.520461 
1204.000000	83.467577 
1203.000000	83.413036 
1202.000000	83.361218 
1201.000000	83.311543 
1200.000000	83.261718 
1199.000000	83.211108 
1198.000000	83.160421 
1197.000000	83.110131 
1196.000000	83.059434 
1195.000000	83.006156 
1194.000000	82.948805 
1193.000000	82.889492 
1192.000000	82.832987 
1191.000000	82.781021 
1190.000000	82.729516 
1189.000000	82.674276 
1188.000000	82.617238 
1187.000000	82.563448 
1186.000000	82.513500 
1185.000000	82.463118 
1184.000000	82.409027 
1183.000000	82.350759 
1182.000000	82.287563 
1181.000000	82.218741 
1180.000000	82.147344 
1179.000000	82.078599 
1178.000000	82.013138 
1177.000000	81.945409 
1176.000000	81.869756 
1175.000000	81.784939 
1174.000000	81.692852 
1173.000000	81.597012 
1172.000000	81.502659 
1171.000000	81.413315 
1170.000000	81.325642 
1169.000000	81.232352 
1168.000000	81.132607 
1167.000000	81.036046 
1166.000000	80.954980 
1165.000000	80.896426 
1164.000000	80.862695 
1163.000000	80.854450 
1162.000000	80.870363 
1161.000000	80.906773 
1160.000000	80.958373 
1159.000000	81.015419 
1158.000000	81.060779 
1157.000000	81.076199 
1156.000000	81.054184 
1155.000000	81.001271 
1154.000000	80.929507 
1153.000000	80.847940 
1152.000000	80.762545 
1151.000000	80.678282 
1150.000000	80.596940 
1149.000000	80.516207 
1148.000000	80.434220 
1147.000000	80.352617 
1146.000000	80.273070 
1145.000000	80.193843 
1144.000000	80.112076 
1143.000000	80.027191 
1142.000000	79.940619 
1141.000000	79.854392 
1140.000000	79.770483 
1139.000000	79.688641 
1138.000000	79.604945 
1137.000000	79.516166 
1136.000000	79.424990 
1135.000000	79.336194 
1134.000000	79.247929 
1133.000000	79.152775 
1132.000000	79.048443 
1131.000000	78.941521 
1130.000000	78.838821 
1129.000000	78.740254 
1128.000000	78.642081 
1127.000000	78.541959 
1126.000000	78.438925 
1125.000000	78.333070 
1124.000000	78.226489 
1123.000000	78.120268 
1122.000000	78.010501 
1121.000000	77.892189 
1120.000000	77.766507 
1119.000000	77.638689 
1118.000000	77.510413 
1117.000000	77.381506 
1116.000000	77.256844 
1115.000000	77.141426 
1114.000000	77.028993 
1113.000000	76.906458 
1112.000000	76.770681 
1111.000000	76.630555 
1110.000000	76.491128 
1109.000000	76.347647 
1108.000000	76.198702 
1107.000000	76.052352 
1106.000000	75.914157 
1105.000000	75.779755 
1104.000000	75.643465 
1103.000000	75.505395 
1102.000000	75.366648 
1101.000000	75.225571 
1100.000000	75.082247 
1099.000000	74.939705 
1098.000000	74.798517 
1097.000000	74.657448 
1096.000000	74.519471 
1095.000000	74.388332 
1094.000000	74.257492 
1093.000000	74.112021 
1092.000000	73.945311 
1091.000000	73.767232 
1090.000000	73.593140 
1089.000000	73.431056 
1088.000000	73.281415 
1087.000000	73.140836 
1086.000000	73.002590 
1085.000000	72.861267 
1084.000000	72.720358 
1083.000000	72.587980 
1082.000000	72.463144 
1081.000000	72.335349 
1080.000000	72.200643 
1079.000000	72.068510 
1078.000000	71.949399 
1077.000000	71.845314 
1076.000000	71.755903 
1075.000000	71.682175 
1074.000000	71.619055 
1073.000000	71.554432 
1072.000000	71.478681 
1071.000000	71.383418 
1070.000000	71.249822 
1069.000000	71.057402 
1068.000000	70.814847 
1067.000000	70.569898 
1066.000000	70.373544 
1065.000000	70.238824 
1064.000000	70.141815 
1063.000000	70.048700 
1062.000000	69.930607 
1061.000000	69.765642 
1060.000000	69.548076 
1059.000000	69.298923 
1058.000000	69.056395 
1057.000000	68.850472 
1056.000000	68.687612 
1055.000000	68.554170 
1054.000000	68.428928 
1053.000000	68.297743 
1052.000000	68.162063 
1051.000000	68.031474 
1050.000000	67.908561 
1049.000000	67.788261 
1048.000000	67.670526 
1047.000000	67.561721 
1046.000000	67.462730 
1045.000000	67.367093 
1044.000000	67.271807 
1043.000000	67.179483 
1042.000000	67.088592 
1041.000000	66.991411 
1040.000000	66.884324 
1039.000000	66.773769 
1038.000000	66.672561 
1037.000000	66.596568 
1036.000000	66.560071 
1035.000000	66.562677 
1034.000000	66.582271 
1033.000000	66.590739 
1032.000000	66.573155 
1031.000000	66.524235 
1030.000000	66.440484 
1029.000000	66.335788 
1028.000000	66.254325 
1027.000000	66.239462 
1026.000000	66.286724 
1025.000000	66.347116 
1024.000000	66.379430 
1023.000000	66.379981 
1022.000000	66.361888 
1021.000000	66.332499 
1020.000000	66.298630 
1019.000000	66.270564 
1018.000000	66.248502 
1017.000000	66.220850 
1016.000000	66.184440 
1015.000000	66.151622 
1014.000000	66.131020 
1013.000000	66.116969 
1012.000000	66.104274 
1011.000000	66.097334 
1010.000000	66.097829 
1009.000000	66.098957 
1008.000000	66.099057 
1007.000000	66.106566 
1006.000000	66.124725 
1005.000000	66.145192 
1004.000000	66.163258 
1003.000000	66.186388 
1002.000000	66.221807 
1001.000000	66.267682 
1000.000000	66.320431 
999.000000	 66.377761 
998.000000	 66.431632 
997.000000	 66.473175 
996.000000	 66.508720 
995.000000	 66.556224 
994.000000	 66.621344 
993.000000	 66.691310 
992.000000	 66.756273 
991.000000	 66.821189 
990.000000	 66.891448 
989.000000	 66.963127 
988.000000	 67.035221 
987.000000	 67.117015 
986.000000	 67.214731 
985.000000	 67.322987 
984.000000	 67.436106 
983.000000	 67.556756 
982.000000	 67.688671 
981.000000	 67.831501 
980.000000	 67.987533 
979.000000	 68.162643 
978.000000	 68.354614 
977.000000	 68.550851 
976.000000	 68.743415 
975.000000	 68.937845 
974.000000	 69.143455 
973.000000	 69.363336 
972.000000	 69.595825 
971.000000	 69.836282 
970.000000	 70.075505 
969.000000	 70.306212 
968.000000	 70.533226 
967.000000	 70.768290 
966.000000	 71.013119 
965.000000	 71.255904 
964.000000	 71.485391 
963.000000	 71.700124 
962.000000	 71.904421 
961.000000	 72.104656 
960.000000	 72.308980 
959.000000	 72.520136 
958.000000	 72.727552 
957.000000	 72.916146 
956.000000	 73.083678 
955.000000	 73.241050 
954.000000	 73.396559 
953.000000	 73.549613 
952.000000	 73.698795 
951.000000	 73.843941 
950.000000	 73.979272 
949.000000	 74.096402 
948.000000	 74.196758 
947.000000	 74.290847 
946.000000	 74.382916 
945.000000	 74.466174 
944.000000	 74.535439 
943.000000	 74.594424 
942.000000	 74.648352 
941.000000	 74.699584 
940.000000	 74.753222 
939.000000	 74.816097 
938.000000	 74.885784 
937.000000	 74.950218 
936.000000	 75.002858 
935.000000	 75.050059 
934.000000	 75.100366 
933.000000	 75.155424 
932.000000	 75.214595 
931.000000	 75.278775 
930.000000	 75.345138 
929.000000	 75.406811 
928.000000	 75.462720 
927.000000	 75.520419 
926.000000	 75.584986 
925.000000	 75.651699 
924.000000	 75.712758 
923.000000	 75.764407 
922.000000	 75.805440 
921.000000	 75.836881 
920.000000	 75.865878 
919.000000	 75.901603 
918.000000	 75.943695 
917.000000	 75.982133 
916.000000	 76.011476 
915.000000	 76.037540 
914.000000	 76.067896 
913.000000	 76.105623 
912.000000	 76.156262 
911.000000	 76.229905 
910.000000	 76.329079 
909.000000	 76.442679 
908.000000	 76.559189 
907.000000	 76.680055 
906.000000	 76.813630 
905.000000	 76.961991 
904.000000	 77.120698 
903.000000	 77.287088 
902.000000	 77.461422 
901.000000	 77.640945 
900.000000	 77.818312 
899.000000	 77.987948 
898.000000	 78.152684 
897.000000	 78.321510 
896.000000	 78.497522 
895.000000	 78.668277 
894.000000	 78.814738 
893.000000	 78.934158 
892.000000	 79.048095 
891.000000	 79.180471 
890.000000	 79.331055 
889.000000	 79.478193 
888.000000	 79.604286 
887.000000	 79.709274 
886.000000	 79.801901 
885.000000	 79.889721 
884.000000	 79.979221 
883.000000	 80.075179 
882.000000	 80.176481 
881.000000	 80.281335 
880.000000	 80.399061 
879.000000	 80.546136 
878.000000	 80.725304 
877.000000	 80.917408 
876.000000	 81.099385 
875.000000	 81.263339 
874.000000	 81.414653 
873.000000	 81.560675 
872.000000	 81.707324 
871.000000	 81.859230 
870.000000	 82.015606 
869.000000	 82.170009 
868.000000	 82.318662 
867.000000	 82.464458 
866.000000	 82.609302 
865.000000	 82.748497 
864.000000	 82.878059 
863.000000	 83.002545 
862.000000	 83.129136 
861.000000	 83.257389 
860.000000	 83.381955 
859.000000	 83.503222 
858.000000	 83.627601 
857.000000	 83.756639 
856.000000	 83.881820 
855.000000	 83.992112 
854.000000	 84.083185 
853.000000	 84.158493 
852.000000	 84.225130 
851.000000	 84.290075 
850.000000	 84.357282 
849.000000	 84.425928 
848.000000	 84.492024 
847.000000	 84.551161 
846.000000	 84.598157 
845.000000	 84.626818 
844.000000	 84.635045 
843.000000	 84.629420 
842.000000	 84.618419 
841.000000	 84.599094 
840.000000	 84.556887 
839.000000	 84.483875 
838.000000	 84.394361 
837.000000	 84.317044 
836.000000	 84.270646 
835.000000	 84.247830 
834.000000	 84.222079 
833.000000	 84.171204 
832.000000	 84.097520 
831.000000	 84.026911 
830.000000	 83.986696 
829.000000	 83.983555 
828.000000	 84.003458 
827.000000	 84.029561 
826.000000	 84.054643 
825.000000	 84.077505 
824.000000	 84.096511 
823.000000	 84.111801 
822.000000	 84.127320 
821.000000	 84.143702 
820.000000	 84.152800 
819.000000	 84.144656 
818.000000	 84.117163 
817.000000	 84.074100 
816.000000	 84.015829 
815.000000	 83.937618 
814.000000	 83.836098 
813.000000	 83.710407 
812.000000	 83.554591 
811.000000	 83.354152 
810.000000	 83.094561 
809.000000	 82.771116 
808.000000	 82.388472 
807.000000	 81.954770 
806.000000	 81.481396 
805.000000	 80.987314 
804.000000	 80.497615 
803.000000	 80.033896 
802.000000	 79.608630 
801.000000	 79.233036 
800.000000	 78.926131 
799.000000	 78.707070 
798.000000	 78.580075 
797.000000	 78.536279 
796.000000	 78.567817 
795.000000	 78.666655 
794.000000	 78.809672 
793.000000	 78.961082 
792.000000	 79.096314 
791.000000	 79.213633 
790.000000	 79.317602 
789.000000	 79.400315 
788.000000	 79.443986 
787.000000	 79.434286 
786.000000	 79.365687 
785.000000	 79.240713 
784.000000	 79.072171 
783.000000	 78.883891 
782.000000	 78.702811 
781.000000	 78.549517 
780.000000	 78.436398 
779.000000	 78.370024 
778.000000	 78.353538 
777.000000	 78.391707 
776.000000	 78.493284 
775.000000	 78.660259 
774.000000	 78.874167 
773.000000	 79.102882 
772.000000	 79.324112 
771.000000	 79.534421 
770.000000	 79.734193 
769.000000	 79.915086 
768.000000	 80.067775 
767.000000	 80.192810 
766.000000	 80.296334 
765.000000	 80.381758 
764.000000	 80.453720 
763.000000	 80.524593 
762.000000	 80.606497 
761.000000	 80.697804 
760.000000	 80.785496 
759.000000	 80.861344 
758.000000	 80.930445 
757.000000	 81.003951 
756.000000	 81.088116 
755.000000	 81.180209 
754.000000	 81.270977 
753.000000	 81.351662 
752.000000	 81.422503 
751.000000	 81.493677 
750.000000	 81.574501 
749.000000	 81.663808 
748.000000	 81.755685 
747.000000	 81.852086 
746.000000	 81.961553 
745.000000	 82.084632 
744.000000	 82.209534 
743.000000	 82.327907 
742.000000	 82.448798 
741.000000	 82.588853 
740.000000	 82.750476 
739.000000	 82.916494 
738.000000	 83.066845 
737.000000	 83.195109 
736.000000	 83.307049 
735.000000	 83.408772 
734.000000	 83.501278 
733.000000	 83.583464 
732.000000	 83.654399 
731.000000	 83.712286 
730.000000	 83.755450 
729.000000	 83.785961 
728.000000	 83.810883 
727.000000	 83.836814 
726.000000	 83.862124 
725.000000	 83.879080 
724.000000	 83.886486 
723.000000	 83.897140 
722.000000	 83.928153 
721.000000	 83.982971 
720.000000	 84.045549 
719.000000	 84.093452 
718.000000	 84.115528 
717.000000	 84.117638 
716.000000	 84.115628 
715.000000	 84.124524 
714.000000	 84.148913 
713.000000	 84.178020 
712.000000	 84.191156 
711.000000	 84.171906 
710.000000	 84.120167 
709.000000	 84.052059 
708.000000	 83.989666 
707.000000	 83.948784 
706.000000	 83.927839 
705.000000	 83.905171 
704.000000	 83.851048 
703.000000	 83.745683 
702.000000	 83.587867 
701.000000	 83.386506 
700.000000	 83.146171 
699.000000	 82.866375 
698.000000	 82.555348 
697.000000	 82.244677 
696.000000	 81.988636 
695.000000	 81.840850 
694.000000	 81.826208 
693.000000	 81.928034 
692.000000	 82.097817 
691.000000	 82.284471 
690.000000	 82.460343 
689.000000	 82.622158 
688.000000	 82.771017 
687.000000	 82.899176 
686.000000	 83.001905 
685.000000	 83.091057 
684.000000	 83.184459 
683.000000	 83.285548 
682.000000	 83.379840 
681.000000	 83.451706 
680.000000	 83.501714 
679.000000	 83.549363 
678.000000	 83.617610 
677.000000	 83.708376 
676.000000	 83.800804 
675.000000	 83.877828 
674.000000	 83.946149 
673.000000	 84.024604 
672.000000	 84.121414 
671.000000	 84.232287 
670.000000	 84.351929 
669.000000	 84.476021 
668.000000	 84.571553 
667.000000	 84.602553 
666.000000	 84.592364 
665.000000	 84.579097 
664.000000	 84.583562 
663.000000	 84.618460 
662.000000	 84.677911 
661.000000	 84.742302 
660.000000	 84.795943 
659.000000	 84.839600 
658.000000	 84.875139 
657.000000	 84.892745 
656.000000	 84.889380 
655.000000	 84.888264 
654.000000	 84.914421 
653.000000	 84.960320 
652.000000	 84.997228 
651.000000	 85.012461 
650.000000	 85.018979 

