PE IR                   SPECTRUM    ASCII       PEDS        1.60        
  -1
~SP.SP
22/12/06
12:11:34.00
23/01/09
14:42:20.00
Administrator

650.000000
4









FRONTIER FT-IR,CPU32 MAIN 00.09.9951 07-SEPTEMBER-2011 11:49:41
MIR TGS
MIR
OPTKBR
90694
0.200000

4.000000
STRONG
RATIO
SPECTRUM
MAGNITUDE
MIRACLE ATR
DOUBLE

COMBINED


0


#HDR
-1
-1
#GR
CM-1
%T
0.00002384185791015625
0.0
4000.000000
-1.000000
3351
8
86.235025
69.166938
#DATA
4000.000000	86.218798 
3999.000000	86.218137 
3998.000000	86.217487 
3997.000000	86.216855 
3996.000000	86.216241 
3995.000000	86.215638 
3994.000000	86.215027 
3993.000000	86.214380 
3992.000000	86.213682 
3991.000000	86.212942 
3990.000000	86.212182 
3989.000000	86.211417 
3988.000000	86.210658 
3987.000000	86.209907 
3986.000000	86.209158 
3985.000000	86.208403 
3984.000000	86.207635 
3983.000000	86.206847 
3982.000000	86.206035 
3981.000000	86.205201 
3980.000000	86.204351 
3979.000000	86.203495 
3978.000000	86.202637 
3977.000000	86.201775 
3976.000000	86.200896 
3975.000000	86.199991 
3974.000000	86.199056 
3973.000000	86.198099 
3972.000000	86.197134 
3971.000000	86.196172 
3970.000000	86.195218 
3969.000000	86.194268 
3968.000000	86.193314 
3967.000000	86.192343 
3966.000000	86.191335 
3965.000000	86.190271 
3964.000000	86.189145 
3963.000000	86.187972 
3962.000000	86.186781 
3961.000000	86.185595 
3960.000000	86.184425 
3959.000000	86.183267 
3958.000000	86.182112 
3957.000000	86.180949 
3956.000000	86.179773 
3955.000000	86.178581 
3954.000000	86.177372 
3953.000000	86.176150 
3952.000000	86.174928 
3951.000000	86.173734 
3950.000000	86.172615 
3949.000000	86.171594 
3948.000000	86.170617 
3947.000000	86.169546 
3946.000000	86.168214 
3945.000000	86.166583 
3944.000000	86.164836 
3943.000000	86.163225 
3942.000000	86.161851 
3941.000000	86.160576 
3940.000000	86.159243 
3939.000000	86.157870 
3938.000000	86.156531 
3937.000000	86.155188 
3936.000000	86.153692 
3935.000000	86.152018 
3934.000000	86.150390 
3933.000000	86.149061 
3932.000000	86.148026 
3931.000000	86.147005 
3930.000000	86.145767 
3929.000000	86.144299 
3928.000000	86.142661 
3927.000000	86.140877 
3926.000000	86.139042 
3925.000000	86.137412 
3924.000000	86.136110 
3923.000000	86.134896 
3922.000000	86.133442 
3921.000000	86.131692 
3920.000000	86.129824 
3919.000000	86.127971 
3918.000000	86.126172 
3917.000000	86.124487 
3916.000000	86.122902 
3915.000000	86.121260 
3914.000000	86.119473 
3913.000000	86.117612 
3912.000000	86.115711 
3911.000000	86.113713 
3910.000000	86.111562 
3909.000000	86.109342 
3908.000000	86.107154 
3907.000000	86.105018 
3906.000000	86.102900 
3905.000000	86.100780 
3904.000000	86.098659 
3903.000000	86.096533 
3902.000000	86.094409 
3901.000000	86.092309 
3900.000000	86.090252 
3899.000000	86.088239 
3898.000000	86.086244 
3897.000000	86.084235 
3896.000000	86.082190 
3895.000000	86.080104 
3894.000000	86.077986 
3893.000000	86.075843 
3892.000000	86.073681 
3891.000000	86.071512 
3890.000000	86.069357 
3889.000000	86.067239 
3888.000000	86.065188 
3887.000000	86.063228 
3886.000000	86.061373 
3885.000000	86.059612 
3884.000000	86.057919 
3883.000000	86.056278 
3882.000000	86.054685 
3881.000000	86.053150 
3880.000000	86.051669 
3879.000000	86.050227 
3878.000000	86.048811 
3877.000000	86.047422 
3876.000000	86.046073 
3875.000000	86.044765 
3874.000000	86.043485 
3873.000000	86.042214 
3872.000000	86.040953 
3871.000000	86.039727 
3870.000000	86.038569 
3869.000000	86.037495 
3868.000000	86.036495 
3867.000000	86.035559 
3866.000000	86.034688 
3865.000000	86.033880 
3864.000000	86.033121 
3863.000000	86.032393 
3862.000000	86.031693 
3861.000000	86.031035 
3860.000000	86.030438 
3859.000000	86.029884 
3858.000000	86.029318 
3857.000000	86.028696 
3856.000000	86.028004 
3855.000000	86.027267 
3854.000000	86.026590 
3853.000000	86.026113 
3852.000000	86.025781 
3851.000000	86.025413 
3850.000000	86.025118 
3849.000000	86.025172 
3848.000000	86.025659 
3847.000000	86.026344 
3846.000000	86.026834 
3845.000000	86.026874 
3844.000000	86.026446 
3843.000000	86.025733 
3842.000000	86.024906 
3841.000000	86.024056 
3840.000000	86.023252 
3839.000000	86.022584 
3838.000000	86.022022 
3837.000000	86.021443 
3836.000000	86.020757 
3835.000000	86.019987 
3834.000000	86.019231 
3833.000000	86.018578 
3832.000000	86.018038 
3831.000000	86.017527 
3830.000000	86.016938 
3829.000000	86.016236 
3828.000000	86.015462 
3827.000000	86.014653 
3826.000000	86.013816 
3825.000000	86.012950 
3824.000000	86.012065 
3823.000000	86.011169 
3822.000000	86.010290 
3821.000000	86.009447 
3820.000000	86.008635 
3819.000000	86.007830 
3818.000000	86.007021 
3817.000000	86.006220 
3816.000000	86.005436 
3815.000000	86.004652 
3814.000000	86.003833 
3813.000000	86.002959 
3812.000000	86.002032 
3811.000000	86.001058 
3810.000000	86.000028 
3809.000000	85.998937 
3808.000000	85.997791 
3807.000000	85.996607 
3806.000000	85.995396 
3805.000000	85.994160 
3804.000000	85.992913 
3803.000000	85.991689 
3802.000000	85.990524 
3801.000000	85.989430 
3800.000000	85.988390 
3799.000000	85.987386 
3798.000000	85.986424 
3797.000000	85.985507 
3796.000000	85.984619 
3795.000000	85.983721 
3794.000000	85.982784 
3793.000000	85.981802 
3792.000000	85.980787 
3791.000000	85.979750 
3790.000000	85.978694 
3789.000000	85.977617 
3788.000000	85.976518 
3787.000000	85.975402 
3786.000000	85.974281 
3785.000000	85.973164 
3784.000000	85.972044 
3783.000000	85.970906 
3782.000000	85.969741 
3781.000000	85.968547 
3780.000000	85.967314 
3779.000000	85.966018 
3778.000000	85.964639 
3777.000000	85.963174 
3776.000000	85.961644 
3775.000000	85.960067 
3774.000000	85.958455 
3773.000000	85.956820 
3772.000000	85.955177 
3771.000000	85.953536 
3770.000000	85.951893 
3769.000000	85.950225 
3768.000000	85.948520 
3767.000000	85.946777 
3766.000000	85.945000 
3765.000000	85.943179 
3764.000000	85.941295 
3763.000000	85.939350 
3762.000000	85.937331 
3761.000000	85.935197 
3760.000000	85.933079 
3759.000000	85.931141 
3758.000000	85.929249 
3757.000000	85.927217 
3756.000000	85.925053 
3755.000000	85.922646 
3754.000000	85.919782 
3753.000000	85.916782 
3752.000000	85.914196 
3751.000000	85.911677 
3750.000000	85.908709 
3749.000000	85.905401 
3748.000000	85.900910 
3747.000000	85.894093 
3746.000000	85.886811 
3745.000000	85.884099 
3744.000000	85.887616 
3743.000000	85.889752 
3742.000000	85.883611 
3741.000000	85.874059 
3740.000000	85.870363 
3739.000000	85.873877 
3738.000000	85.876336 
3737.000000	85.870987 
3736.000000	85.860740 
3735.000000	85.852278 
3734.000000	85.847197 
3733.000000	85.844330 
3732.000000	85.844500 
3731.000000	85.846195 
3730.000000	85.843618 
3729.000000	85.833604 
3728.000000	85.820840 
3727.000000	85.813347 
3726.000000	85.812395 
3725.000000	85.810537 
3724.000000	85.802416 
3723.000000	85.791156 
3722.000000	85.782331 
3721.000000	85.776811 
3720.000000	85.772131 
3719.000000	85.767188 
3718.000000	85.762633 
3717.000000	85.758581 
3716.000000	85.752275 
3715.000000	85.740929 
3714.000000	85.725705 
3713.000000	85.709897 
3712.000000	85.694142 
3711.000000	85.675749 
3710.000000	85.653460 
3709.000000	85.630290 
3708.000000	85.610787 
3707.000000	85.597600 
3706.000000	85.588956 
3705.000000	85.579716 
3704.000000	85.565226 
3703.000000	85.544303 
3702.000000	85.519403 
3701.000000	85.493976 
3700.000000	85.469299 
3699.000000	85.445190 
3698.000000	85.422930 
3697.000000	85.405143 
3696.000000	85.391452 
3695.000000	85.377772 
3694.000000	85.363017 
3693.000000	85.351539 
3692.000000	85.346308 
3691.000000	85.342866 
3690.000000	85.333983 
3689.000000	85.320019 
3688.000000	85.307912 
3687.000000	85.300015 
3686.000000	85.292714 
3685.000000	85.285083 
3684.000000	85.280027 
3683.000000	85.278097 
3682.000000	85.274888 
3681.000000	85.266478 
3680.000000	85.253354 
3679.000000	85.235932 
3678.000000	85.212279 
3677.000000	85.184317 
3676.000000	85.162816 
3675.000000	85.154680 
3674.000000	85.150376 
3673.000000	85.137811 
3672.000000	85.120379 
3671.000000	85.109391 
3670.000000	85.107556 
3669.000000	85.105953 
3668.000000	85.097753 
3667.000000	85.086932 
3666.000000	85.079410 
3665.000000	85.074996 
3664.000000	85.069920 
3663.000000	85.063038 
3662.000000	85.056806 
3661.000000	85.053018 
3660.000000	85.049872 
3659.000000	85.044649 
3658.000000	85.038474 
3657.000000	85.035820 
3656.000000	85.038635 
3655.000000	85.041077 
3654.000000	85.035495 
3653.000000	85.022090 
3652.000000	85.009256 
3651.000000	85.003731 
3650.000000	85.002777 
3649.000000	84.999859 
3648.000000	84.996308 
3647.000000	84.998042 
3646.000000	85.004792 
3645.000000	85.011688 
3644.000000	85.016338 
3643.000000	85.020083 
3642.000000	85.023665 
3641.000000	85.025371 
3640.000000	85.023868 
3639.000000	85.021396 
3638.000000	85.021112 
3637.000000	85.022468 
3636.000000	85.022685 
3635.000000	85.021505 
3634.000000	85.020972 
3633.000000	85.020054 
3632.000000	85.015194 
3631.000000	85.007129 
3630.000000	85.002032 
3629.000000	85.002622 
3628.000000	85.001868 
3627.000000	84.992959 
3626.000000	84.981276 
3625.000000	84.977695 
3624.000000	84.984906 
3623.000000	84.995458 
3622.000000	85.001114 
3621.000000	85.002541 
3620.000000	85.006817 
3619.000000	85.016922 
3618.000000	85.028397 
3617.000000	85.036181 
3616.000000	85.040082 
3615.000000	85.043185 
3614.000000	85.047844 
3613.000000	85.053327 
3612.000000	85.057448 
3611.000000	85.060251 
3610.000000	85.064937 
3609.000000	85.074096 
3608.000000	85.085697 
3607.000000	85.095001 
3606.000000	85.100240 
3605.000000	85.104094 
3604.000000	85.109682 
3603.000000	85.117272 
3602.000000	85.125356 
3601.000000	85.133220 
3600.000000	85.140593 
3599.000000	85.145568 
3598.000000	85.146307 
3597.000000	85.143661 
3596.000000	85.140785 
3595.000000	85.140145 
3594.000000	85.142003 
3593.000000	85.144735 
3592.000000	85.147411 
3591.000000	85.150799 
3590.000000	85.156231 
3589.000000	85.163716 
3588.000000	85.170946 
3587.000000	85.174846 
3586.000000	85.174377 
3585.000000	85.171489 
3584.000000	85.169524 
3583.000000	85.170896 
3582.000000	85.175492 
3581.000000	85.181064 
3580.000000	85.185128 
3579.000000	85.186766 
3578.000000	85.187236 
3577.000000	85.188248 
3576.000000	85.189837 
3575.000000	85.190247 
3574.000000	85.188181 
3573.000000	85.184498 
3572.000000	85.181445 
3571.000000	85.180608 
3570.000000	85.181758 
3569.000000	85.183410 
3568.000000	85.183831 
3567.000000	85.182058 
3566.000000	85.178876 
3565.000000	85.176534 
3564.000000	85.176945 
3563.000000	85.180036 
3562.000000	85.183752 
3561.000000	85.185807 
3560.000000	85.185783 
3559.000000	85.185205 
3558.000000	85.185672 
3557.000000	85.187224 
3556.000000	85.188521 
3555.000000	85.188321 
3554.000000	85.186610 
3553.000000	85.184386 
3552.000000	85.182495 
3551.000000	85.181030 
3550.000000	85.179864 
3549.000000	85.179154 
3548.000000	85.178897 
3547.000000	85.178452 
3546.000000	85.177250 
3545.000000	85.175798 
3544.000000	85.175113 
3543.000000	85.175275 
3542.000000	85.175139 
3541.000000	85.173582 
3540.000000	85.170610 
3539.000000	85.167284 
3538.000000	85.164778 
3537.000000	85.163553 
3536.000000	85.163230 
3535.000000	85.162992 
3534.000000	85.162212 
3533.000000	85.160738 
3532.000000	85.158663 
3531.000000	85.155957 
3530.000000	85.152623 
3529.000000	85.149093 
3528.000000	85.146084 
3527.000000	85.143883 
3526.000000	85.142117 
3525.000000	85.140244 
3524.000000	85.138027 
3523.000000	85.135535 
3522.000000	85.132970 
3521.000000	85.130633 
3520.000000	85.128754 
3519.000000	85.127226 
3518.000000	85.125556 
3517.000000	85.123317 
3516.000000	85.120570 
3515.000000	85.117730 
3514.000000	85.115086 
3513.000000	85.112559 
3512.000000	85.109955 
3511.000000	85.107237 
3510.000000	85.104491 
3509.000000	85.101772 
3508.000000	85.099040 
3507.000000	85.096236 
3506.000000	85.093354 
3505.000000	85.090461 
3504.000000	85.087616 
3503.000000	85.084809 
3502.000000	85.081983 
3501.000000	85.079114 
3500.000000	85.076231 
3499.000000	85.073371 
3498.000000	85.070532 
3497.000000	85.067690 
3496.000000	85.064824 
3495.000000	85.061927 
3494.000000	85.059003 
3493.000000	85.056065 
3492.000000	85.053132 
3491.000000	85.050222 
3490.000000	85.047341 
3489.000000	85.044480 
3488.000000	85.041623 
3487.000000	85.038749 
3486.000000	85.035841 
3485.000000	85.032893 
3484.000000	85.029902 
3483.000000	85.026872 
3482.000000	85.023806 
3481.000000	85.020710 
3480.000000	85.017589 
3479.000000	85.014446 
3478.000000	85.011281 
3477.000000	85.008090 
3476.000000	85.004876 
3475.000000	85.001644 
3474.000000	84.998403 
3473.000000	84.995158 
3472.000000	84.991909 
3471.000000	84.988648 
3470.000000	84.985371 
3469.000000	84.982083 
3468.000000	84.978791 
3467.000000	84.975502 
3466.000000	84.972214 
3465.000000	84.968916 
3464.000000	84.965598 
3463.000000	84.962251 
3462.000000	84.958877 
3461.000000	84.955486 
3460.000000	84.952092 
3459.000000	84.948704 
3458.000000	84.945331 
3457.000000	84.941971 
3456.000000	84.938608 
3455.000000	84.935232 
3454.000000	84.931846 
3453.000000	84.928470 
3452.000000	84.925125 
3451.000000	84.921806 
3450.000000	84.918458 
3449.000000	84.915014 
3448.000000	84.911456 
3447.000000	84.907877 
3446.000000	84.904401 
3445.000000	84.901059 
3444.000000	84.897737 
3443.000000	84.894284 
3442.000000	84.890643 
3441.000000	84.886925 
3440.000000	84.883364 
3439.000000	84.880107 
3438.000000	84.877047 
3437.000000	84.873893 
3436.000000	84.870518 
3435.000000	84.867093 
3434.000000	84.863867 
3433.000000	84.860920 
3432.000000	84.858184 
3431.000000	84.855589 
3430.000000	84.853081 
3429.000000	84.850567 
3428.000000	84.847943 
3427.000000	84.845174 
3426.000000	84.842296 
3425.000000	84.839376 
3424.000000	84.836474 
3423.000000	84.833619 
3422.000000	84.830796 
3421.000000	84.827971 
3420.000000	84.825184 
3419.000000	84.822588 
3418.000000	84.820314 
3417.000000	84.818312 
3416.000000	84.816325 
3415.000000	84.814089 
3414.000000	84.811556 
3413.000000	84.808943 
3412.000000	84.806556 
3411.000000	84.804507 
3410.000000	84.802623 
3409.000000	84.800648 
3408.000000	84.798514 
3407.000000	84.796419 
3406.000000	84.794639 
3405.000000	84.793277 
3404.000000	84.792157 
3403.000000	84.790918 
3402.000000	84.789273 
3401.000000	84.787230 
3400.000000	84.785191 
3399.000000	84.783713 
3398.000000	84.783036 
3397.000000	84.782859 
3396.000000	84.782514 
3395.000000	84.781579 
3394.000000	84.780178 
3393.000000	84.778797 
3392.000000	84.777858 
3391.000000	84.777493 
3390.000000	84.777603 
3389.000000	84.777854 
3388.000000	84.777712 
3387.000000	84.776764 
3386.000000	84.775126 
3385.000000	84.773479 
3384.000000	84.772520 
3383.000000	84.772459 
3382.000000	84.773103 
3381.000000	84.774186 
3380.000000	84.775470 
3379.000000	84.776638 
3378.000000	84.777319 
3377.000000	84.777305 
3376.000000	84.776715 
3375.000000	84.776012 
3374.000000	84.775823 
3373.000000	84.776630 
3372.000000	84.778492 
3371.000000	84.780990 
3370.000000	84.783469 
3369.000000	84.785343 
3368.000000	84.786308 
3367.000000	84.786473 
3366.000000	84.786328 
3365.000000	84.786503 
3364.000000	84.787419 
3363.000000	84.789155 
3362.000000	84.791515 
3361.000000	84.794158 
3360.000000	84.796704 
3359.000000	84.798882 
3358.000000	84.800664 
3357.000000	84.802206 
3356.000000	84.803599 
3355.000000	84.804742 
3354.000000	84.805451 
3353.000000	84.805711 
3352.000000	84.805857 
3351.000000	84.806443 
3350.000000	84.807798 
3349.000000	84.809745 
3348.000000	84.811690 
3347.000000	84.813144 
3346.000000	84.814169 
3345.000000	84.815203 
3344.000000	84.816551 
3343.000000	84.818124 
3342.000000	84.819656 
3341.000000	84.820987 
3340.000000	84.822119 
3339.000000	84.823144 
3338.000000	84.824231 
3337.000000	84.825576 
3336.000000	84.827217 
3335.000000	84.828872 
3334.000000	84.830099 
3333.000000	84.830701 
3332.000000	84.830933 
3331.000000	84.831355 
3330.000000	84.832405 
3329.000000	84.834120 
3328.000000	84.836114 
3327.000000	84.837813 
3326.000000	84.838856 
3325.000000	84.839296 
3324.000000	84.839534 
3323.000000	84.840038 
3322.000000	84.841093 
3321.000000	84.842676 
3320.000000	84.844461 
3319.000000	84.845985 
3318.000000	84.846917 
3317.000000	84.847178 
3316.000000	84.846878 
3315.000000	84.846225 
3314.000000	84.845464 
3313.000000	84.844735 
3312.000000	84.843965 
3311.000000	84.843127 
3310.000000	84.842674 
3309.000000	84.843359 
3308.000000	84.845391 
3307.000000	84.847953 
3306.000000	84.849978 
3305.000000	84.851376 
3304.000000	84.852945 
3303.000000	84.855134 
3302.000000	84.857297 
3301.000000	84.858416 
3300.000000	84.858273 
3299.000000	84.857535 
3298.000000	84.856937 
3297.000000	84.856704 
3296.000000	84.856838 
3295.000000	84.857478 
3294.000000	84.858627 
3293.000000	84.859743 
3292.000000	84.860046 
3291.000000	84.859322 
3290.000000	84.858229 
3289.000000	84.857710 
3288.000000	84.858138 
3287.000000	84.859178 
3286.000000	84.860162 
3285.000000	84.860592 
3284.000000	84.860369 
3283.000000	84.859763 
3282.000000	84.859227 
3281.000000	84.859033 
3280.000000	84.859089 
3279.000000	84.859121 
3278.000000	84.859015 
3277.000000	84.858913 
3276.000000	84.858985 
3275.000000	84.859221 
3274.000000	84.859452 
3273.000000	84.859521 
3272.000000	84.859406 
3271.000000	84.859174 
3270.000000	84.858891 
3269.000000	84.858587 
3268.000000	84.858275 
3267.000000	84.857963 
3266.000000	84.857654 
3265.000000	84.857338 
3264.000000	84.856995 
3263.000000	84.856627 
3262.000000	84.856252 
3261.000000	84.855879 
3260.000000	84.855478 
3259.000000	84.855006 
3258.000000	84.854459 
3257.000000	84.853888 
3256.000000	84.853375 
3255.000000	84.852973 
3254.000000	84.852673 
3253.000000	84.852373 
3252.000000	84.851961 
3251.000000	84.851389 
3250.000000	84.850704 
3249.000000	84.850018 
3248.000000	84.849476 
3247.000000	84.849194 
3246.000000	84.849108 
3245.000000	84.848873 
3244.000000	84.848123 
3243.000000	84.846816 
3242.000000	84.845355 
3241.000000	84.844281 
3240.000000	84.843725 
3239.000000	84.843347 
3238.000000	84.842702 
3237.000000	84.841730 
3236.000000	84.840782 
3235.000000	84.840251 
3234.000000	84.840230 
3233.000000	84.840472 
3232.000000	84.840590 
3231.000000	84.840341 
3230.000000	84.839792 
3229.000000	84.839271 
3228.000000	84.839117 
3227.000000	84.839430 
3226.000000	84.840013 
3225.000000	84.840486 
3224.000000	84.840544 
3223.000000	84.840180 
3222.000000	84.839739 
3221.000000	84.839642 
3220.000000	84.839999 
3219.000000	84.840519 
3218.000000	84.840820 
3217.000000	84.840792 
3216.000000	84.840625 
3215.000000	84.840583 
3214.000000	84.840800 
3213.000000	84.841282 
3212.000000	84.841959 
3211.000000	84.842735 
3210.000000	84.843567 
3209.000000	84.844520 
3208.000000	84.845684 
3207.000000	84.847032 
3206.000000	84.848377 
3205.000000	84.849500 
3204.000000	84.850322 
3203.000000	84.850936 
3202.000000	84.851528 
3201.000000	84.852304 
3200.000000	84.853414 
3199.000000	84.854868 
3198.000000	84.856524 
3197.000000	84.858136 
3196.000000	84.859540 
3195.000000	84.860755 
3194.000000	84.861906 
3193.000000	84.863118 
3192.000000	84.864427 
3191.000000	84.865798 
3190.000000	84.867188 
3189.000000	84.868559 
3188.000000	84.869895 
3187.000000	84.871207 
3186.000000	84.872529 
3185.000000	84.873893 
3184.000000	84.875301 
3183.000000	84.876727 
3182.000000	84.878136 
3181.000000	84.879519 
3180.000000	84.880898 
3179.000000	84.882314 
3178.000000	84.883787 
3177.000000	84.885308 
3176.000000	84.886842 
3175.000000	84.888368 
3174.000000	84.889890 
3173.000000	84.891414 
3172.000000	84.892937 
3171.000000	84.894455 
3170.000000	84.895964 
3169.000000	84.897463 
3168.000000	84.898954 
3167.000000	84.900441 
3166.000000	84.901929 
3165.000000	84.903422 
3164.000000	84.904921 
3163.000000	84.906421 
3162.000000	84.907911 
3161.000000	84.909383 
3160.000000	84.910838 
3159.000000	84.912284 
3158.000000	84.913723 
3157.000000	84.915148 
3156.000000	84.916548 
3155.000000	84.917917 
3154.000000	84.919264 
3153.000000	84.920617 
3152.000000	84.922004 
3151.000000	84.923422 
3150.000000	84.924846 
3149.000000	84.926259 
3148.000000	84.927667 
3147.000000	84.929090 
3146.000000	84.930535 
3145.000000	84.931992 
3144.000000	84.933441 
3143.000000	84.934863 
3142.000000	84.936253 
3141.000000	84.937627 
3140.000000	84.939002 
3139.000000	84.940384 
3138.000000	84.941774 
3137.000000	84.943169 
3136.000000	84.944559 
3135.000000	84.945936 
3134.000000	84.947299 
3133.000000	84.948659 
3132.000000	84.950026 
3131.000000	84.951403 
3130.000000	84.952783 
3129.000000	84.954156 
3128.000000	84.955516 
3127.000000	84.956862 
3126.000000	84.958199 
3125.000000	84.959530 
3124.000000	84.960853 
3123.000000	84.962165 
3122.000000	84.963462 
3121.000000	84.964747 
3120.000000	84.966028 
3119.000000	84.967318 
3118.000000	84.968624 
3117.000000	84.969951 
3116.000000	84.971296 
3115.000000	84.972654 
3114.000000	84.974020 
3113.000000	84.975392 
3112.000000	84.976770 
3111.000000	84.978154 
3110.000000	84.979542 
3109.000000	84.980927 
3108.000000	84.982298 
3107.000000	84.983645 
3106.000000	84.984965 
3105.000000	84.986260 
3104.000000	84.987533 
3103.000000	84.988827 
3102.000000	84.990240 
3101.000000	84.991801 
3100.000000	84.993352 
3099.000000	84.994632 
3098.000000	84.995609 
3097.000000	84.996548 
3096.000000	84.997521 
3095.000000	84.998136 
3094.000000	84.998193 
3093.000000	84.998452 
3092.000000	85.000004 
3091.000000	85.002752 
3090.000000	85.005145 
3089.000000	85.005690 
3088.000000	85.004504 
3087.000000	85.003279 
3086.000000	85.003704 
3085.000000	85.006004 
3084.000000	85.009078 
3083.000000	85.011888 
3082.000000	85.014270 
3081.000000	85.016280 
3080.000000	85.017515 
3079.000000	85.017941 
3078.000000	85.018965 
3077.000000	85.022435 
3076.000000	85.028299 
3075.000000	85.034169 
3074.000000	85.037594 
3073.000000	85.038183 
3072.000000	85.037308 
3071.000000	85.036494 
3070.000000	85.036470 
3069.000000	85.036895 
3068.000000	85.036246 
3067.000000	85.032654 
3066.000000	85.025866 
3065.000000	85.018391 
3064.000000	85.014035 
3063.000000	85.015138 
3062.000000	85.021178 
3061.000000	85.029334 
3060.000000	85.036050 
3059.000000	85.038982 
3058.000000	85.038544 
3057.000000	85.037650 
3056.000000	85.039029 
3055.000000	85.042161 
3054.000000	85.043027 
3053.000000	85.037288 
3052.000000	85.024254 
3051.000000	85.008330 
3050.000000	84.996304 
3049.000000	84.992068 
3048.000000	84.993455 
3047.000000	84.994747 
3046.000000	84.992413 
3045.000000	84.987770 
3044.000000	84.984051 
3043.000000	84.982030 
3042.000000	84.979387 
3041.000000	84.973496 
3040.000000	84.963648 
3039.000000	84.950877 
3038.000000	84.936919 
3037.000000	84.923605 
3036.000000	84.912160 
3035.000000	84.902446 
3034.000000	84.893153 
3033.000000	84.882861 
3032.000000	84.870868 
3031.000000	84.857130 
3030.000000	84.841570 
3029.000000	84.823708 
3028.000000	84.803106 
3027.000000	84.779894 
3026.000000	84.754735 
3025.000000	84.728553 
3024.000000	84.702382 
3023.000000	84.677251 
3022.000000	84.653871 
3021.000000	84.632228 
3020.000000	84.611481 
3019.000000	84.590348 
3018.000000	84.567746 
3017.000000	84.543307 
3016.000000	84.517450 
3015.000000	84.490810 
3014.000000	84.463267 
3013.000000	84.433584 
3012.000000	84.400485 
3011.000000	84.364375 
3010.000000	84.327561 
3009.000000	84.292384 
3008.000000	84.259270 
3007.000000	84.226797 
3006.000000	84.193369 
3005.000000	84.158577 
3004.000000	84.123316 
3003.000000	84.089056 
3002.000000	84.056811 
3001.000000	84.026358 
3000.000000	83.996435 
2999.000000	83.966114 
2998.000000	83.936197 
2997.000000	83.909021 
2996.000000	83.886131 
2995.000000	83.864859 
2994.000000	83.836666 
2993.000000	83.790897 
2992.000000	83.723784 
2991.000000	83.645314 
2990.000000	83.575296 
2989.000000	83.530163 
2988.000000	83.513233 
2987.000000	83.516733 
2986.000000	83.530083 
2985.000000	83.544560 
2984.000000	83.552893 
2983.000000	83.550098 
2982.000000	83.536760 
2981.000000	83.519032 
2980.000000	83.503574 
2979.000000	83.493318 
2978.000000	83.488263 
2977.000000	83.487843 
2976.000000	83.491195 
2975.000000	83.497260 
2974.000000	83.507112 
2973.000000	83.525347 
2972.000000	83.556949 
2971.000000	83.602643 
2970.000000	83.658589 
2969.000000	83.720559 
2968.000000	83.786940 
2967.000000	83.857179 
2966.000000	83.928475 
2965.000000	83.995414 
2964.000000	84.053184 
2963.000000	84.100656 
2962.000000	84.140028 
2961.000000	84.173929 
2960.000000	84.203743 
2959.000000	84.230707 
2958.000000	84.256967 
2957.000000	84.283817 
2956.000000	84.309452 
2955.000000	84.330667 
2954.000000	84.347383 
2953.000000	84.363561 
2952.000000	84.382230 
2951.000000	84.400739 
2950.000000	84.412849 
2949.000000	84.415479 
2948.000000	84.411993 
2947.000000	84.408775 
2946.000000	84.409658 
2945.000000	84.414245 
2944.000000	84.420725 
2943.000000	84.429079 
2942.000000	84.440928 
2941.000000	84.456687 
2940.000000	84.474172 
2939.000000	84.490884 
2938.000000	84.507246 
2937.000000	84.526406 
2936.000000	84.550641 
2935.000000	84.578800 
2934.000000	84.607581 
2933.000000	84.634377 
2932.000000	84.658458 
2931.000000	84.680461 
2930.000000	84.701813 
2929.000000	84.724054 
2928.000000	84.747329 
2927.000000	84.769508 
2926.000000	84.787897 
2925.000000	84.802353 
2924.000000	84.815898 
2923.000000	84.831523 
2922.000000	84.848541 
2921.000000	84.862501 
2920.000000	84.868342 
2919.000000	84.862686 
2918.000000	84.843129 
2917.000000	84.806890 
2916.000000	84.752239 
2915.000000	84.681767 
2914.000000	84.603253 
2913.000000	84.526380 
2912.000000	84.458401 
2911.000000	84.402377 
2910.000000	84.357673 
2909.000000	84.320884 
2908.000000	84.287493 
2907.000000	84.254351 
2906.000000	84.220322 
2905.000000	84.183990 
2904.000000	84.142846 
2903.000000	84.097760 
2902.000000	84.057900 
2901.000000	84.037114 
2900.000000	84.042987 
2899.000000	84.069639 
2898.000000	84.101701 
2897.000000	84.125105 
2896.000000	84.134625 
2895.000000	84.133673 
2894.000000	84.129326 
2893.000000	84.127161 
2892.000000	84.128843 
2891.000000	84.133021 
2890.000000	84.137615 
2889.000000	84.140699 
2888.000000	84.140185 
2887.000000	84.135153 
2886.000000	84.128602 
2885.000000	84.127331 
2884.000000	84.137259 
2883.000000	84.158829 
2882.000000	84.187418 
2881.000000	84.217590 
2880.000000	84.246309 
2879.000000	84.273075 
2878.000000	84.298386 
2877.000000	84.322396 
2876.000000	84.344594 
2875.000000	84.364733 
2874.000000	84.383933 
2873.000000	84.404024 
2872.000000	84.425562 
2871.000000	84.447328 
2870.000000	84.468115 
2869.000000	84.488014 
2868.000000	84.507567 
2867.000000	84.527036 
2866.000000	84.547328 
2865.000000	84.570363 
2864.000000	84.597425 
2863.000000	84.628200 
2862.000000	84.662403 
2861.000000	84.700796 
2860.000000	84.743068 
2859.000000	84.786228 
2858.000000	84.827423 
2857.000000	84.867422 
2856.000000	84.908882 
2855.000000	84.951469 
2854.000000	84.991179 
2853.000000	85.024427 
2852.000000	85.050141 
2851.000000	85.067502 
2850.000000	85.074292 
2849.000000	85.068855 
2848.000000	85.052165 
2847.000000	85.027133 
2846.000000	84.997492 
2845.000000	84.968264 
2844.000000	84.945156 
2843.000000	84.931072 
2842.000000	84.923495 
2841.000000	84.917005 
2840.000000	84.908558 
2839.000000	84.899621 
2838.000000	84.893560 
2837.000000	84.892084 
2836.000000	84.894111 
2835.000000	84.896830 
2834.000000	84.897458 
2833.000000	84.894947 
2832.000000	84.890831 
2831.000000	84.888035 
2830.000000	84.888076 
2829.000000	84.889315 
2828.000000	84.888461 
2827.000000	84.884294 
2826.000000	84.879825 
2825.000000	84.880337 
2824.000000	84.888927 
2823.000000	84.903684 
2822.000000	84.918993 
2821.000000	84.929396 
2820.000000	84.932507 
2819.000000	84.929167 
2818.000000	84.922061 
2817.000000	84.914606 
2816.000000	84.910111 
2815.000000	84.910472 
2814.000000	84.914919 
2813.000000	84.920452 
2812.000000	84.924346 
2811.000000	84.926410 
2810.000000	84.928470 
2809.000000	84.931805 
2808.000000	84.935821 
2807.000000	84.939255 
2806.000000	84.941629 
2805.000000	84.943059 
2804.000000	84.943623 
2803.000000	84.943691 
2802.000000	84.944323 
2801.000000	84.946630 
2800.000000	84.950537 
2799.000000	84.954563 
2798.000000	84.957121 
2797.000000	84.957825 
2796.000000	84.957447 
2795.000000	84.956976 
2794.000000	84.956879 
2793.000000	84.957129 
2792.000000	84.957650 
2791.000000	84.958649 
2790.000000	84.960475 
2789.000000	84.963133 
2788.000000	84.966002 
2787.000000	84.968244 
2786.000000	84.969563 
2785.000000	84.970381 
2784.000000	84.971308 
2783.000000	84.972572 
2782.000000	84.974007 
2781.000000	84.975360 
2780.000000	84.976488 
2779.000000	84.977402 
2778.000000	84.978232 
2777.000000	84.979138 
2776.000000	84.980173 
2775.000000	84.981266 
2774.000000	84.982350 
2773.000000	84.983430 
2772.000000	84.984551 
2771.000000	84.985721 
2770.000000	84.986907 
2769.000000	84.988064 
2768.000000	84.989171 
2767.000000	84.990242 
2766.000000	84.991312 
2765.000000	84.992402 
2764.000000	84.993507 
2763.000000	84.994602 
2762.000000	84.995667 
2761.000000	84.996709 
2760.000000	84.997742 
2759.000000	84.998785 
2758.000000	84.999844 
2757.000000	85.000915 
2756.000000	85.002001 
2755.000000	85.003106 
2754.000000	85.004230 
2753.000000	85.005366 
2752.000000	85.006510 
2751.000000	85.007663 
2750.000000	85.008830 
2749.000000	85.010004 
2748.000000	85.011178 
2747.000000	85.012348 
2746.000000	85.013515 
2745.000000	85.014681 
2744.000000	85.015845 
2743.000000	85.017007 
2742.000000	85.018172 
2741.000000	85.019349 
2740.000000	85.020543 
2739.000000	85.021756 
2738.000000	85.022981 
2737.000000	85.024212 
2736.000000	85.025443 
2735.000000	85.026658 
2734.000000	85.027842 
2733.000000	85.028994 
2732.000000	85.030131 
2731.000000	85.031259 
2730.000000	85.032371 
2729.000000	85.033474 
2728.000000	85.034595 
2727.000000	85.035750 
2726.000000	85.036891 
2725.000000	85.037941 
2724.000000	85.038882 
2723.000000	85.039794 
2722.000000	85.040767 
2721.000000	85.041835 
2720.000000	85.042982 
2719.000000	85.044146 
2718.000000	85.045219 
2717.000000	85.046117 
2716.000000	85.046853 
2715.000000	85.047545 
2714.000000	85.048299 
2713.000000	85.049094 
2712.000000	85.049830 
2711.000000	85.050471 
2710.000000	85.051058 
2709.000000	85.051643 
2708.000000	85.052314 
2707.000000	85.053191 
2706.000000	85.054242 
2705.000000	85.055253 
2704.000000	85.056149 
2703.000000	85.057177 
2702.000000	85.058504 
2701.000000	85.059780 
2700.000000	85.060441 
2699.000000	85.060407 
2698.000000	85.060173 
2697.000000	85.060250 
2696.000000	85.060690 
2695.000000	85.061161 
2694.000000	85.061280 
2693.000000	85.060957 
2692.000000	85.060689 
2691.000000	85.061420 
2690.000000	85.063742 
2689.000000	85.067084 
2688.000000	85.069950 
2687.000000	85.071274 
2686.000000	85.071277 
2685.000000	85.070887 
2684.000000	85.070532 
2683.000000	85.069864 
2682.000000	85.068682 
2681.000000	85.067624 
2680.000000	85.067512 
2679.000000	85.068192 
2678.000000	85.068371 
2677.000000	85.066806 
2676.000000	85.063637 
2675.000000	85.060481 
2674.000000	85.059067 
2673.000000	85.059858 
2672.000000	85.062071 
2671.000000	85.064715 
2670.000000	85.067430 
2669.000000	85.070267 
2668.000000	85.072995 
2667.000000	85.075021 
2666.000000	85.075902 
2665.000000	85.075718 
2664.000000	85.074975 
2663.000000	85.074289 
2662.000000	85.074133 
2661.000000	85.074623 
2660.000000	85.075403 
2659.000000	85.075898 
2658.000000	85.075888 
2657.000000	85.075793 
2656.000000	85.076185 
2655.000000	85.077077 
2654.000000	85.077892 
2653.000000	85.078111 
2652.000000	85.077742 
2651.000000	85.077107 
2650.000000	85.076458 
2649.000000	85.075906 
2648.000000	85.075550 
2647.000000	85.075439 
2646.000000	85.075441 
2645.000000	85.075378 
2644.000000	85.075293 
2643.000000	85.075425 
2642.000000	85.075885 
2641.000000	85.076462 
2640.000000	85.076774 
2639.000000	85.076622 
2638.000000	85.076114 
2637.000000	85.075566 
2636.000000	85.075264 
2635.000000	85.075283 
2634.000000	85.075508 
2633.000000	85.075757 
2632.000000	85.075919 
2631.000000	85.075986 
2630.000000	85.075980 
2629.000000	85.075913 
2628.000000	85.075808 
2627.000000	85.075718 
2626.000000	85.075699 
2625.000000	85.075752 
2624.000000	85.075815 
2623.000000	85.075823 
2622.000000	85.075756 
2621.000000	85.075633 
2620.000000	85.075490 
2619.000000	85.075370 
2618.000000	85.075307 
2617.000000	85.075290 
2616.000000	85.075222 
2615.000000	85.074995 
2614.000000	85.074588 
2613.000000	85.074106 
2612.000000	85.073714 
2611.000000	85.073499 
2610.000000	85.073439 
2609.000000	85.073484 
2608.000000	85.073648 
2607.000000	85.073980 
2606.000000	85.074451 
2605.000000	85.074878 
2604.000000	85.075036 
2603.000000	85.074874 
2602.000000	85.074628 
2601.000000	85.074625 
2600.000000	85.074894 
2599.000000	85.075082 
2598.000000	85.074882 
2597.000000	85.074445 
2596.000000	85.074258 
2595.000000	85.074597 
2594.000000	85.075255 
2593.000000	85.075773 
2592.000000	85.075862 
2591.000000	85.075535 
2590.000000	85.075002 
2589.000000	85.074550 
2588.000000	85.074403 
2587.000000	85.074554 
2586.000000	85.074732 
2585.000000	85.074605 
2584.000000	85.074037 
2583.000000	85.073112 
2582.000000	85.072020 
2581.000000	85.070953 
2580.000000	85.070092 
2579.000000	85.069582 
2578.000000	85.069496 
2577.000000	85.069854 
2576.000000	85.070679 
2575.000000	85.071992 
2574.000000	85.073676 
2573.000000	85.075324 
2572.000000	85.076301 
2571.000000	85.076277 
2570.000000	85.075672 
2569.000000	85.075363 
2568.000000	85.075703 
2567.000000	85.075982 
2566.000000	85.075183 
2565.000000	85.073118 
2564.000000	85.070649 
2563.000000	85.068791 
2562.000000	85.067818 
2561.000000	85.067488 
2560.000000	85.067718 
2559.000000	85.068644 
2558.000000	85.070011 
2557.000000	85.070992 
2556.000000	85.070973 
2555.000000	85.070266 
2554.000000	85.069753 
2553.000000	85.069785 
2552.000000	85.069759 
2551.000000	85.068972 
2550.000000	85.067579 
2549.000000	85.066439 
2548.000000	85.066072 
2547.000000	85.066211 
2546.000000	85.066344 
2545.000000	85.066410 
2544.000000	85.066748 
2543.000000	85.067482 
2542.000000	85.068325 
2541.000000	85.068912 
2540.000000	85.069112 
2539.000000	85.069029 
2538.000000	85.068820 
2537.000000	85.068556 
2536.000000	85.068246 
2535.000000	85.067924 
2534.000000	85.067667 
2533.000000	85.067517 
2532.000000	85.067437 
2531.000000	85.067347 
2530.000000	85.067200 
2529.000000	85.066999 
2528.000000	85.066761 
2527.000000	85.066504 
2526.000000	85.066263 
2525.000000	85.066091 
2524.000000	85.066014 
2523.000000	85.066001 
2522.000000	85.065983 
2521.000000	85.065899 
2520.000000	85.065726 
2519.000000	85.065474 
2518.000000	85.065197 
2517.000000	85.064969 
2516.000000	85.064815 
2515.000000	85.064671 
2514.000000	85.064449 
2513.000000	85.064149 
2512.000000	85.063867 
2511.000000	85.063702 
2510.000000	85.063679 
2509.000000	85.063740 
2508.000000	85.063754 
2507.000000	85.063581 
2506.000000	85.063213 
2505.000000	85.062895 
2504.000000	85.062969 
2503.000000	85.063536 
2502.000000	85.064207 
2501.000000	85.064406 
2500.000000	85.063920 
2499.000000	85.063006 
2498.000000	85.062098 
2497.000000	85.061448 
2496.000000	85.061045 
2495.000000	85.060658 
2494.000000	85.059997 
2493.000000	85.059045 
2492.000000	85.058183 
2491.000000	85.057786 
2490.000000	85.057743 
2489.000000	85.057617 
2488.000000	85.057245 
2487.000000	85.056870 
2486.000000	85.056673 
2485.000000	85.056579 
2484.000000	85.056597 
2483.000000	85.056960 
2482.000000	85.057678 
2481.000000	85.058243 
2480.000000	85.058109 
2479.000000	85.057329 
2478.000000	85.056525 
2477.000000	85.056263 
2476.000000	85.056592 
2475.000000	85.057164 
2474.000000	85.057576 
2473.000000	85.057648 
2472.000000	85.057530 
2471.000000	85.057566 
2470.000000	85.057932 
2469.000000	85.058372 
2468.000000	85.058445 
2467.000000	85.058039 
2466.000000	85.057471 
2465.000000	85.057036 
2464.000000	85.056636 
2463.000000	85.055947 
2462.000000	85.054808 
2461.000000	85.053449 
2460.000000	85.052360 
2459.000000	85.051901 
2458.000000	85.052053 
2457.000000	85.052410 
2456.000000	85.052497 
2455.000000	85.052154 
2454.000000	85.051564 
2453.000000	85.050995 
2452.000000	85.050553 
2451.000000	85.050215 
2450.000000	85.049956 
2449.000000	85.049755 
2448.000000	85.049554 
2447.000000	85.049298 
2446.000000	85.048995 
2445.000000	85.048688 
2444.000000	85.048387 
2443.000000	85.048062 
2442.000000	85.047692 
2441.000000	85.047293 
2440.000000	85.046890 
2439.000000	85.046498 
2438.000000	85.046122 
2437.000000	85.045773 
2436.000000	85.045453 
2435.000000	85.045145 
2434.000000	85.044828 
2433.000000	85.044492 
2432.000000	85.044144 
2431.000000	85.043796 
2430.000000	85.043456 
2429.000000	85.043129 
2428.000000	85.042820 
2427.000000	85.042531 
2426.000000	85.042259 
2425.000000	85.042003 
2424.000000	85.041762 
2423.000000	85.041535 
2422.000000	85.041325 
2421.000000	85.041132 
2420.000000	85.040955 
2419.000000	85.040791 
2418.000000	85.040640 
2417.000000	85.040501 
2416.000000	85.040378 
2415.000000	85.040270 
2414.000000	85.040176 
2413.000000	85.040097 
2412.000000	85.040028 
2411.000000	85.039967 
2410.000000	85.039915 
2409.000000	85.039874 
2408.000000	85.039849 
2407.000000	85.039839 
2406.000000	85.039839 
2405.000000	85.039833 
2404.000000	85.039809 
2403.000000	85.039760 
2402.000000	85.039691 
2401.000000	85.039615 
2400.000000	85.039541 
2399.000000	85.039470 
2398.000000	85.039397 
2397.000000	85.039319 
2396.000000	85.039237 
2395.000000	85.039156 
2394.000000	85.039082 
2393.000000	85.039016 
2392.000000	85.038954 
2391.000000	85.038886 
2390.000000	85.038802 
2389.000000	85.038700 
2388.000000	85.038580 
2387.000000	85.038450 
2386.000000	85.038315 
2385.000000	85.038178 
2384.000000	85.038038 
2383.000000	85.037894 
2382.000000	85.037747 
2381.000000	85.037601 
2380.000000	85.037460 
2379.000000	85.037320 
2378.000000	85.037173 
2377.000000	85.037013 
2376.000000	85.036842 
2375.000000	85.036667 
2374.000000	85.036490 
2373.000000	85.036313 
2372.000000	85.036129 
2371.000000	85.035932 
2370.000000	85.035716 
2369.000000	85.035484 
2368.000000	85.035239 
2367.000000	85.034982 
2366.000000	85.034704 
2365.000000	85.034395 
2364.000000	85.034055 
2363.000000	85.033698 
2362.000000	85.033348 
2361.000000	85.033028 
2360.000000	85.032748 
2359.000000	85.032499 
2358.000000	85.032262 
2357.000000	85.032024 
2356.000000	85.031786 
2355.000000	85.031558 
2354.000000	85.031346 
2353.000000	85.031146 
2352.000000	85.030950 
2351.000000	85.030745 
2350.000000	85.030524 
2349.000000	85.030295 
2348.000000	85.030080 
2347.000000	85.029905 
2346.000000	85.029784 
2345.000000	85.029709 
2344.000000	85.029654 
2343.000000	85.029598 
2342.000000	85.029535 
2341.000000	85.029472 
2340.000000	85.029417 
2339.000000	85.029373 
2338.000000	85.029334 
2337.000000	85.029295 
2336.000000	85.029259 
2335.000000	85.029236 
2334.000000	85.029231 
2333.000000	85.029236 
2332.000000	85.029238 
2331.000000	85.029227 
2330.000000	85.029204 
2329.000000	85.029177 
2328.000000	85.029166 
2327.000000	85.029187 
2326.000000	85.029244 
2325.000000	85.029332 
2324.000000	85.029447 
2323.000000	85.029586 
2322.000000	85.029752 
2321.000000	85.029941 
2320.000000	85.030145 
2319.000000	85.030351 
2318.000000	85.030548 
2317.000000	85.030730 
2316.000000	85.030902 
2315.000000	85.031074 
2314.000000	85.031258 
2313.000000	85.031458 
2312.000000	85.031670 
2311.000000	85.031886 
2310.000000	85.032099 
2309.000000	85.032307 
2308.000000	85.032511 
2307.000000	85.032714 
2306.000000	85.032915 
2305.000000	85.033105 
2304.000000	85.033270 
2303.000000	85.033396 
2302.000000	85.033492 
2301.000000	85.033572 
2300.000000	85.033656 
2299.000000	85.033750 
2298.000000	85.033850 
2297.000000	85.033946 
2296.000000	85.034034 
2295.000000	85.034112 
2294.000000	85.034181 
2293.000000	85.034241 
2292.000000	85.034288 
2291.000000	85.034324 
2290.000000	85.034352 
2289.000000	85.034377 
2288.000000	85.034400 
2287.000000	85.034418 
2286.000000	85.034424 
2285.000000	85.034413 
2284.000000	85.034378 
2283.000000	85.034321 
2282.000000	85.034244 
2281.000000	85.034151 
2280.000000	85.034047 
2279.000000	85.033936 
2278.000000	85.033818 
2277.000000	85.033691 
2276.000000	85.033548 
2275.000000	85.033387 
2274.000000	85.033211 
2273.000000	85.033028 
2272.000000	85.032842 
2271.000000	85.032654 
2270.000000	85.032460 
2269.000000	85.032257 
2268.000000	85.032047 
2267.000000	85.031837 
2266.000000	85.031638 
2265.000000	85.031455 
2264.000000	85.031284 
2263.000000	85.031119 
2262.000000	85.030953 
2261.000000	85.030785 
2260.000000	85.030621 
2259.000000	85.030462 
2258.000000	85.030311 
2257.000000	85.030161 
2256.000000	85.030009 
2255.000000	85.029855 
2254.000000	85.029703 
2253.000000	85.029562 
2252.000000	85.029432 
2251.000000	85.029323 
2250.000000	85.029239 
2249.000000	85.029175 
2248.000000	85.029099 
2247.000000	85.028997 
2246.000000	85.028922 
2245.000000	85.028952 
2244.000000	85.029100 
2243.000000	85.029291 
2242.000000	85.029442 
2241.000000	85.029532 
2240.000000	85.029602 
2239.000000	85.029706 
2238.000000	85.029867 
2237.000000	85.030059 
2236.000000	85.030218 
2235.000000	85.030303 
2234.000000	85.030376 
2233.000000	85.030589 
2232.000000	85.031042 
2231.000000	85.031687 
2230.000000	85.032367 
2229.000000	85.032937 
2228.000000	85.033347 
2227.000000	85.033637 
2226.000000	85.033879 
2225.000000	85.034108 
2224.000000	85.034285 
2223.000000	85.034380 
2222.000000	85.034466 
2221.000000	85.034668 
2220.000000	85.035006 
2219.000000	85.035394 
2218.000000	85.035793 
2217.000000	85.036278 
2216.000000	85.036893 
2215.000000	85.037523 
2214.000000	85.037990 
2213.000000	85.038264 
2212.000000	85.038460 
2211.000000	85.038704 
2210.000000	85.039011 
2209.000000	85.039323 
2208.000000	85.039594 
2207.000000	85.039819 
2206.000000	85.040027 
2205.000000	85.040257 
2204.000000	85.040524 
2203.000000	85.040809 
2202.000000	85.041080 
2201.000000	85.041307 
2200.000000	85.041488 
2199.000000	85.041635 
2198.000000	85.041776 
2197.000000	85.041923 
2196.000000	85.042071 
2195.000000	85.042212 
2194.000000	85.042335 
2193.000000	85.042435 
2192.000000	85.042510 
2191.000000	85.042560 
2190.000000	85.042588 
2189.000000	85.042600 
2188.000000	85.042602 
2187.000000	85.042598 
2186.000000	85.042591 
2185.000000	85.042586 
2184.000000	85.042588 
2183.000000	85.042599 
2182.000000	85.042615 
2181.000000	85.042627 
2180.000000	85.042629 
2179.000000	85.042619 
2178.000000	85.042598 
2177.000000	85.042569 
2176.000000	85.042534 
2175.000000	85.042494 
2174.000000	85.042446 
2173.000000	85.042388 
2172.000000	85.042318 
2171.000000	85.042241 
2170.000000	85.042164 
2169.000000	85.042089 
2168.000000	85.042017 
2167.000000	85.041949 
2166.000000	85.041879 
2165.000000	85.041790 
2164.000000	85.041678 
2163.000000	85.041572 
2162.000000	85.041516 
2161.000000	85.041490 
2160.000000	85.041416 
2159.000000	85.041255 
2158.000000	85.041020 
2157.000000	85.040743 
2156.000000	85.040460 
2155.000000	85.040224 
2154.000000	85.040064 
2153.000000	85.039920 
2152.000000	85.039673 
2151.000000	85.039271 
2150.000000	85.038808 
2149.000000	85.038473 
2148.000000	85.038373 
2147.000000	85.038453 
2146.000000	85.038507 
2145.000000	85.038366 
2144.000000	85.038047 
2143.000000	85.037734 
2142.000000	85.037585 
2141.000000	85.037581 
2140.000000	85.037578 
2139.000000	85.037480 
2138.000000	85.037329 
2137.000000	85.037239 
2136.000000	85.037280 
2135.000000	85.037436 
2134.000000	85.037615 
2133.000000	85.037679 
2132.000000	85.037523 
2131.000000	85.037147 
2130.000000	85.036671 
2129.000000	85.036255 
2128.000000	85.036005 
2127.000000	85.035963 
2126.000000	85.036129 
2125.000000	85.036407 
2124.000000	85.036629 
2123.000000	85.036721 
2122.000000	85.036831 
2121.000000	85.037181 
2120.000000	85.037776 
2119.000000	85.038350 
2118.000000	85.038660 
2117.000000	85.038761 
2116.000000	85.038928 
2115.000000	85.039330 
2114.000000	85.039896 
2113.000000	85.040449 
2112.000000	85.040905 
2111.000000	85.041284 
2110.000000	85.041604 
2109.000000	85.041885 
2108.000000	85.042208 
2107.000000	85.042647 
2106.000000	85.043132 
2105.000000	85.043483 
2104.000000	85.043636 
2103.000000	85.043696 
2102.000000	85.043855 
2101.000000	85.044194 
2100.000000	85.044660 
2099.000000	85.045133 
2098.000000	85.045517 
2097.000000	85.045802 
2096.000000	85.046039 
2095.000000	85.046286 
2094.000000	85.046561 
2093.000000	85.046842 
2092.000000	85.047091 
2091.000000	85.047279 
2090.000000	85.047397 
2089.000000	85.047482 
2088.000000	85.047621 
2087.000000	85.047868 
2086.000000	85.048186 
2085.000000	85.048492 
2084.000000	85.048750 
2083.000000	85.048996 
2082.000000	85.049258 
2081.000000	85.049505 
2080.000000	85.049680 
2079.000000	85.049756 
2078.000000	85.049731 
2077.000000	85.049624 
2076.000000	85.049477 
2075.000000	85.049360 
2074.000000	85.049318 
2073.000000	85.049323 
2072.000000	85.049288 
2071.000000	85.049145 
2070.000000	85.048894 
2069.000000	85.048595 
2068.000000	85.048323 
2067.000000	85.048105 
2066.000000	85.047907 
2065.000000	85.047657 
2064.000000	85.047319 
2063.000000	85.046931 
2062.000000	85.046551 
2061.000000	85.046174 
2060.000000	85.045743 
2059.000000	85.045221 
2058.000000	85.044627 
2057.000000	85.044004 
2056.000000	85.043386 
2055.000000	85.042797 
2054.000000	85.042240 
2053.000000	85.041691 
2052.000000	85.041122 
2051.000000	85.040507 
2050.000000	85.039837 
2049.000000	85.039122 
2048.000000	85.038381 
2047.000000	85.037635 
2046.000000	85.036885 
2045.000000	85.036122 
2044.000000	85.035336 
2043.000000	85.034519 
2042.000000	85.033664 
2041.000000	85.032769 
2040.000000	85.031845 
2039.000000	85.030915 
2038.000000	85.030005 
2037.000000	85.029123 
2036.000000	85.028243 
2035.000000	85.027328 
2034.000000	85.026371 
2033.000000	85.025397 
2032.000000	85.024408 
2031.000000	85.023389 
2030.000000	85.022347 
2029.000000	85.021264 
2028.000000	85.020100 
2027.000000	85.018889 
2026.000000	85.017761 
2025.000000	85.016802 
2024.000000	85.015930 
2023.000000	85.015011 
2022.000000	85.014013 
2021.000000	85.012972 
2020.000000	85.011947 
2019.000000	85.011089 
2018.000000	85.010568 
2017.000000	85.010290 
2016.000000	85.009861 
2015.000000	85.009014 
2014.000000	85.007876 
2013.000000	85.006765 
2012.000000	85.005856 
2011.000000	85.005187 
2010.000000	85.004748 
2009.000000	85.004373 
2008.000000	85.003735 
2007.000000	85.002685 
2006.000000	85.001479 
2005.000000	85.000485 
2004.000000	84.999790 
2003.000000	84.999307 
2002.000000	84.999056 
2001.000000	84.999072 
2000.000000	84.999132 
1999.000000	84.998875 
1998.000000	84.998247 
1997.000000	84.997559 
1996.000000	84.997112 
1995.000000	84.996913 
1994.000000	84.996812 
1993.000000	84.996750 
1992.000000	84.996774 
1991.000000	84.996907 
1990.000000	84.997082 
1989.000000	84.997192 
1988.000000	84.997175 
1987.000000	84.997056 
1986.000000	84.996906 
1985.000000	84.996781 
1984.000000	84.996691 
1983.000000	84.996622 
1982.000000	84.996565 
1981.000000	84.996523 
1980.000000	84.996502 
1979.000000	84.996498 
1978.000000	84.996502 
1977.000000	84.996508 
1976.000000	84.996507 
1975.000000	84.996493 
1974.000000	84.996470 
1973.000000	84.996449 
1972.000000	84.996438 
1971.000000	84.996440 
1970.000000	84.996449 
1969.000000	84.996456 
1968.000000	84.996455 
1967.000000	84.996441 
1966.000000	84.996418 
1965.000000	84.996389 
1964.000000	84.996349 
1963.000000	84.996292 
1962.000000	84.996209 
1961.000000	84.996095 
1960.000000	84.995955 
1959.000000	84.995794 
1958.000000	84.995618 
1957.000000	84.995430 
1956.000000	84.995227 
1955.000000	84.995005 
1954.000000	84.994762 
1953.000000	84.994501 
1952.000000	84.994229 
1951.000000	84.993950 
1950.000000	84.993667 
1949.000000	84.993373 
1948.000000	84.993060 
1947.000000	84.992722 
1946.000000	84.992360 
1945.000000	84.991977 
1944.000000	84.991582 
1943.000000	84.991180 
1942.000000	84.990772 
1941.000000	84.990355 
1940.000000	84.989921 
1939.000000	84.989465 
1938.000000	84.988989 
1937.000000	84.988482 
1936.000000	84.987935 
1935.000000	84.987361 
1934.000000	84.986803 
1933.000000	84.986303 
1932.000000	84.985827 
1931.000000	84.985274 
1930.000000	84.984587 
1929.000000	84.983837 
1928.000000	84.983130 
1927.000000	84.982419 
1926.000000	84.981563 
1925.000000	84.980550 
1924.000000	84.979646 
1923.000000	84.979148 
1922.000000	84.978979 
1921.000000	84.978773 
1920.000000	84.978366 
1919.000000	84.977914 
1918.000000	84.977510 
1917.000000	84.976950 
1916.000000	84.976211 
1915.000000	84.975762 
1914.000000	84.975978 
1913.000000	84.976439 
1912.000000	84.976170 
1911.000000	84.974698 
1910.000000	84.972443 
1909.000000	84.970267 
1908.000000	84.968605 
1907.000000	84.967095 
1906.000000	84.965129 
1905.000000	84.962429 
1904.000000	84.959743 
1903.000000	84.958473 
1902.000000	84.959211 
1901.000000	84.961191 
1900.000000	84.962984 
1899.000000	84.963706 
1898.000000	84.963422 
1897.000000	84.962430 
1896.000000	84.961010 
1895.000000	84.959607 
1894.000000	84.958668 
1893.000000	84.958408 
1892.000000	84.958889 
1891.000000	84.960163 
1890.000000	84.961963 
1889.000000	84.963482 
1888.000000	84.964019 
1887.000000	84.963574 
1886.000000	84.962531 
1885.000000	84.961188 
1884.000000	84.959834 
1883.000000	84.958916 
1882.000000	84.958842 
1881.000000	84.960101 
1880.000000	84.963210 
1879.000000	84.967852 
1878.000000	84.972342 
1877.000000	84.974555 
1876.000000	84.974104 
1875.000000	84.973026 
1874.000000	84.973261 
1873.000000	84.974280 
1872.000000	84.974377 
1871.000000	84.973425 
1870.000000	84.973146 
1869.000000	84.974624 
1868.000000	84.976975 
1867.000000	84.979345 
1866.000000	84.982108 
1865.000000	84.985300 
1864.000000	84.988049 
1863.000000	84.990087 
1862.000000	84.992556 
1861.000000	84.996699 
1860.000000	85.002391 
1859.000000	85.008275 
1858.000000	85.012781 
1857.000000	85.014954 
1856.000000	85.015152 
1855.000000	85.015330 
1854.000000	85.017391 
1853.000000	85.021429 
1852.000000	85.025953 
1851.000000	85.029422 
1850.000000	85.031672 
1849.000000	85.033325 
1848.000000	85.034933 
1847.000000	85.036947 
1846.000000	85.039529 
1845.000000	85.042062 
1844.000000	85.043587 
1843.000000	85.044419 
1842.000000	85.046197 
1841.000000	85.049962 
1840.000000	85.054672 
1839.000000	85.058291 
1838.000000	85.060129 
1837.000000	85.061022 
1836.000000	85.061827 
1835.000000	85.062627 
1834.000000	85.063385 
1833.000000	85.064516 
1832.000000	85.066003 
1831.000000	85.066758 
1830.000000	85.065895 
1829.000000	85.063998 
1828.000000	85.062599 
1827.000000	85.062643 
1826.000000	85.064150 
1825.000000	85.066531 
1824.000000	85.068972 
1823.000000	85.071424 
1822.000000	85.074684 
1821.000000	85.079132 
1820.000000	85.083726 
1819.000000	85.086954 
1818.000000	85.088408 
1817.000000	85.088673 
1816.000000	85.088629 
1815.000000	85.089017 
1814.000000	85.090523 
1813.000000	85.093683 
1812.000000	85.097971 
1811.000000	85.101665 
1810.000000	85.102851 
1809.000000	85.101181 
1808.000000	85.098862 
1807.000000	85.098891 
1806.000000	85.102494 
1805.000000	85.108373 
1804.000000	85.114280 
1803.000000	85.118703 
1802.000000	85.121129 
1801.000000	85.121688 
1800.000000	85.120920 
1799.000000	85.120290 
1798.000000	85.121221 
1797.000000	85.123580 
1796.000000	85.126300 
1795.000000	85.128799 
1794.000000	85.131442 
1793.000000	85.134933 
1792.000000	85.139707 
1791.000000	85.146284 
1790.000000	85.155028 
1789.000000	85.165152 
1788.000000	85.174456 
1787.000000	85.180576 
1786.000000	85.183069 
1785.000000	85.183832 
1784.000000	85.185485 
1783.000000	85.189029 
1782.000000	85.194117 
1781.000000	85.200521 
1780.000000	85.207252 
1779.000000	85.213088 
1778.000000	85.217693 
1777.000000	85.221730 
1776.000000	85.225863 
1775.000000	85.229687 
1774.000000	85.232584 
1773.000000	85.235360 
1772.000000	85.239435 
1771.000000	85.245678 
1770.000000	85.255409 
1769.000000	85.268507 
1768.000000	85.281553 
1767.000000	85.290658 
1766.000000	85.296189 
1765.000000	85.302001 
1764.000000	85.309987 
1763.000000	85.318156 
1762.000000	85.324016 
1761.000000	85.327328 
1760.000000	85.329229 
1759.000000	85.331825 
1758.000000	85.337337 
1757.000000	85.346608 
1756.000000	85.356797 
1755.000000	85.364308 
1754.000000	85.370348 
1753.000000	85.378523 
1752.000000	85.388735 
1751.000000	85.397119 
1750.000000	85.401827 
1749.000000	85.405515 
1748.000000	85.411265 
1747.000000	85.417885 
1746.000000	85.423570 
1745.000000	85.429759 
1744.000000	85.437767 
1743.000000	85.446121 
1742.000000	85.452599 
1741.000000	85.456751 
1740.000000	85.458859 
1739.000000	85.458491 
1738.000000	85.456521 
1737.000000	85.456536 
1736.000000	85.459598 
1735.000000	85.460642 
1734.000000	85.454939 
1733.000000	85.444848 
1732.000000	85.436893 
1731.000000	85.435970 
1730.000000	85.441596 
1729.000000	85.448188 
1728.000000	85.451175 
1727.000000	85.449755 
1726.000000	85.444979 
1725.000000	85.437844 
1724.000000	85.429551 
1723.000000	85.422758 
1722.000000	85.418492 
1721.000000	85.414795 
1720.000000	85.408609 
1719.000000	85.398527 
1718.000000	85.387620 
1717.000000	85.379657 
1716.000000	85.374004 
1715.000000	85.368792 
1714.000000	85.364028 
1713.000000	85.359715 
1712.000000	85.355912 
1711.000000	85.353687 
1710.000000	85.353620 
1709.000000	85.354801 
1708.000000	85.355635 
1707.000000	85.355907 
1706.000000	85.356847 
1705.000000	85.358730 
1704.000000	85.362208 
1703.000000	85.368838 
1702.000000	85.376810 
1701.000000	85.381951 
1700.000000	85.383994 
1699.000000	85.386512 
1698.000000	85.395133 
1697.000000	85.414030 
1696.000000	85.438716 
1695.000000	85.457703 
1694.000000	85.465068 
1693.000000	85.467288 
1692.000000	85.473796 
1691.000000	85.487558 
1690.000000	85.505991 
1689.000000	85.526209 
1688.000000	85.545892 
1687.000000	85.562426 
1686.000000	85.573463 
1685.000000	85.581758 
1684.000000	85.594456 
1683.000000	85.609951 
1682.000000	85.624141 
1681.000000	85.640187 
1680.000000	85.659500 
1679.000000	85.677882 
1678.000000	85.692769 
1677.000000	85.706567 
1676.000000	85.722134 
1675.000000	85.738496 
1674.000000	85.753078 
1673.000000	85.766472 
1672.000000	85.779779 
1671.000000	85.790894 
1670.000000	85.797376 
1669.000000	85.803862 
1668.000000	85.816995 
1667.000000	85.835281 
1666.000000	85.854370 
1665.000000	85.872983 
1664.000000	85.891722 
1663.000000	85.909531 
1662.000000	85.922816 
1661.000000	85.931738 
1660.000000	85.939858 
1659.000000	85.947858 
1658.000000	85.953651 
1657.000000	85.957154 
1656.000000	85.959398 
1655.000000	85.957221 
1654.000000	85.949958 
1653.000000	85.950186 
1652.000000	85.959548 
1651.000000	85.960786 
1650.000000	85.952258 
1649.000000	85.945218 
1648.000000	85.943122 
1647.000000	85.942603 
1646.000000	85.942277 
1645.000000	85.943067 
1644.000000	85.944485 
1643.000000	85.945600 
1642.000000	85.944692 
1641.000000	85.940481 
1640.000000	85.934677 
1639.000000	85.931082 
1638.000000	85.930761 
1637.000000	85.930987 
1636.000000	85.930265 
1635.000000	85.930333 
1634.000000	85.932206 
1633.000000	85.934038 
1632.000000	85.936951 
1631.000000	85.943072 
1630.000000	85.951392 
1629.000000	85.959987 
1628.000000	85.968459 
1627.000000	85.977279 
1626.000000	85.985887 
1625.000000	85.992878 
1624.000000	85.997301 
1623.000000	85.999763 
1622.000000	86.001847 
1621.000000	86.006073 
1620.000000	86.015067 
1619.000000	86.029991 
1618.000000	86.048978 
1617.000000	86.068077 
1616.000000	86.083169 
1615.000000	86.091713 
1614.000000	86.096066 
1613.000000	86.100880 
1612.000000	86.107641 
1611.000000	86.114264 
1610.000000	86.119280 
1609.000000	86.124617 
1608.000000	86.133045 
1607.000000	86.144679 
1606.000000	86.157545 
1605.000000	86.170310 
1604.000000	86.181542 
1603.000000	86.189763 
1602.000000	86.196096 
1601.000000	86.203760 
1600.000000	86.214031 
1599.000000	86.224387 
1598.000000	86.231717 
1597.000000	86.235025 
1596.000000	86.234283 
1595.000000	86.229452 
1594.000000	86.222228 
1593.000000	86.216718 
1592.000000	86.215961 
1591.000000	86.218890 
1590.000000	86.222116 
1589.000000	86.223835 
1588.000000	86.224429 
1587.000000	86.224481 
1586.000000	86.223490 
1585.000000	86.220864 
1584.000000	86.216292 
1583.000000	86.208865 
1582.000000	86.199237 
1581.000000	86.191032 
1580.000000	86.187845 
1579.000000	86.189082 
1578.000000	86.189449 
1577.000000	86.181753 
1576.000000	86.164033 
1575.000000	86.142163 
1574.000000	86.123165 
1573.000000	86.110836 
1572.000000	86.104177 
1571.000000	86.098504 
1570.000000	86.090551 
1569.000000	86.082123 
1568.000000	86.075594 
1567.000000	86.069592 
1566.000000	86.062783 
1565.000000	86.056561 
1564.000000	86.053170 
1563.000000	86.052798 
1562.000000	86.053020 
1561.000000	86.046939 
1560.000000	86.029994 
1559.000000	86.008186 
1558.000000	85.992166 
1557.000000	85.986061 
1556.000000	85.985882 
1555.000000	85.988101 
1554.000000	85.989270 
1553.000000	85.986328 
1552.000000	85.979214 
1551.000000	85.970222 
1550.000000	85.962917 
1549.000000	85.959847 
1548.000000	85.961417 
1547.000000	85.964971 
1546.000000	85.967392 
1545.000000	85.968736 
1544.000000	85.973108 
1543.000000	85.985308 
1542.000000	86.006076 
1541.000000	86.027731 
1540.000000	86.035723 
1539.000000	86.024451 
1538.000000	86.002179 
1537.000000	85.976259 
1536.000000	85.949153 
1535.000000	85.918628 
1534.000000	85.882829 
1533.000000	85.848354 
1532.000000	85.821946 
1531.000000	85.802454 
1530.000000	85.785624 
1529.000000	85.769704 
1528.000000	85.755408 
1527.000000	85.743391 
1526.000000	85.733689 
1525.000000	85.726662 
1524.000000	85.722208 
1523.000000	85.718890 
1522.000000	85.714270 
1521.000000	85.706303 
1520.000000	85.693883 
1519.000000	85.677988 
1518.000000	85.663458 
1517.000000	85.655103 
1516.000000	85.653202 
1515.000000	85.654505 
1514.000000	85.656146 
1513.000000	85.656327 
1512.000000	85.653190 
1511.000000	85.646990 
1510.000000	85.640395 
1509.000000	85.634873 
1508.000000	85.630189 
1507.000000	85.628754 
1506.000000	85.632583 
1505.000000	85.635637 
1504.000000	85.630610 
1503.000000	85.621202 
1502.000000	85.615019 
1501.000000	85.614477 
1500.000000	85.617531 
1499.000000	85.620808 
1498.000000	85.622518 
1497.000000	85.623169 
1496.000000	85.624927 
1495.000000	85.628781 
1494.000000	85.632972 
1493.000000	85.635409 
1492.000000	85.634651 
1491.000000	85.632280 
1490.000000	85.633647 
1489.000000	85.640759 
1488.000000	85.648895 
1487.000000	85.653822 
1486.000000	85.654930 
1485.000000	85.654321 
1484.000000	85.655762 
1483.000000	85.662279 
1482.000000	85.675032 
1481.000000	85.691028 
1480.000000	85.705294 
1479.000000	85.716293 
1478.000000	85.727469 
1477.000000	85.742988 
1476.000000	85.763887 
1475.000000	85.788164 
1474.000000	85.814208 
1473.000000	85.842724 
1472.000000	85.871562 
1471.000000	85.896146 
1470.000000	85.916074 
1469.000000	85.934863 
1468.000000	85.955104 
1467.000000	85.976750 
1466.000000	85.997350 
1465.000000	86.012802 
1464.000000	86.019154 
1463.000000	86.016587 
1462.000000	86.009577 
1461.000000	86.003217 
1460.000000	86.001368 
1459.000000	86.004580 
1458.000000	86.008518 
1457.000000	86.004643 
1456.000000	85.988114 
1455.000000	85.963965 
1454.000000	85.943266 
1453.000000	85.933821 
1452.000000	85.933487 
1451.000000	85.935052 
1450.000000	85.935352 
1449.000000	85.936447 
1448.000000	85.940647 
1447.000000	85.946718 
1446.000000	85.951358 
1445.000000	85.953004 
1444.000000	85.951459 
1443.000000	85.948050 
1442.000000	85.945635 
1441.000000	85.946481 
1440.000000	85.950379 
1439.000000	85.955403 
1438.000000	85.960144 
1437.000000	85.964646 
1436.000000	85.968193 
1435.000000	85.968463 
1434.000000	85.966571 
1433.000000	85.966152 
1432.000000	85.968131 
1431.000000	85.970335 
1430.000000	85.970810 
1429.000000	85.969505 
1428.000000	85.967804 
1427.000000	85.967082 
1426.000000	85.967563 
1425.000000	85.968467 
1424.000000	85.967882 
1423.000000	85.964595 
1422.000000	85.959194 
1421.000000	85.952098 
1420.000000	85.942869 
1419.000000	85.932283 
1418.000000	85.921817 
1417.000000	85.911334 
1416.000000	85.900160 
1415.000000	85.888037 
1414.000000	85.875044 
1413.000000	85.861924 
1412.000000	85.849828 
1411.000000	85.839357 
1410.000000	85.829802 
1409.000000	85.819853 
1408.000000	85.809806 
1407.000000	85.802266 
1406.000000	85.800163 
1405.000000	85.804837 
1404.000000	85.814766 
1403.000000	85.826205 
1402.000000	85.836005 
1401.000000	85.843689 
1400.000000	85.850759 
1399.000000	85.857084 
1398.000000	85.857562 
1397.000000	85.844951 
1396.000000	85.817768 
1395.000000	85.787334 
1394.000000	85.772401 
1393.000000	85.780743 
1392.000000	85.803855 
1391.000000	85.827595 
1390.000000	85.842954 
1389.000000	85.847883 
1388.000000	85.844464 
1387.000000	85.836781 
1386.000000	85.829337 
1385.000000	85.825317 
1384.000000	85.825560 
1383.000000	85.828844 
1382.000000	85.833239 
1381.000000	85.837688 
1380.000000	85.842601 
1379.000000	85.848906 
1378.000000	85.856943 
1377.000000	85.866251 
1376.000000	85.876136 
1375.000000	85.886132 
1374.000000	85.896280 
1373.000000	85.907180 
1372.000000	85.919590 
1371.000000	85.934090 
1370.000000	85.950606 
1369.000000	85.967810 
1368.000000	85.983308 
1367.000000	85.995406 
1366.000000	86.004611 
1365.000000	86.012980 
1364.000000	86.022354 
1363.000000	86.033465 
1362.000000	86.046046 
1361.000000	86.058901 
1360.000000	86.070124 
1359.000000	86.078480 
1358.000000	86.085278 
1357.000000	86.093990 
1356.000000	86.106670 
1355.000000	86.120874 
1354.000000	86.131663 
1353.000000	86.136942 
1352.000000	86.138956 
1351.000000	86.140644 
1350.000000	86.143100 
1349.000000	86.145776 
1348.000000	86.147089 
1347.000000	86.145832 
1346.000000	86.142004 
1345.000000	86.136684 
1344.000000	86.131828 
1343.000000	86.129791 
1342.000000	86.131849 
1341.000000	86.136367 
1340.000000	86.139174 
1339.000000	86.137667 
1338.000000	86.134473 
1337.000000	86.134864 
1336.000000	86.140700 
1335.000000	86.148562 
1334.000000	86.153653 
1333.000000	86.154532 
1332.000000	86.153738 
1331.000000	86.154813 
1330.000000	86.159444 
1329.000000	86.166753 
1328.000000	86.174159 
1327.000000	86.178987 
1326.000000	86.180411 
1325.000000	86.180571 
1324.000000	86.183261 
1323.000000	86.190406 
1322.000000	86.199612 
1321.000000	86.205931 
1320.000000	86.206627 
1319.000000	86.203915 
1318.000000	86.202679 
1317.000000	86.205709 
1316.000000	86.211907 
1315.000000	86.218472 
1314.000000	86.223283 
1313.000000	86.225384 
1312.000000	86.224799 
1311.000000	86.222736 
1310.000000	86.221205 
1309.000000	86.221422 
1308.000000	86.222730 
1307.000000	86.223464 
1306.000000	86.222523 
1305.000000	86.220017 
1304.000000	86.217194 
1303.000000	86.216133 
1302.000000	86.218462 
1301.000000	86.223251 
1300.000000	86.226861 
1299.000000	86.226185 
1298.000000	86.221768 
1297.000000	86.217026 
1296.000000	86.214880 
1295.000000	86.215926 
1294.000000	86.218979 
1293.000000	86.221720 
1292.000000	86.221253 
1291.000000	86.216179 
1290.000000	86.208650 
1289.000000	86.202672 
1288.000000	86.199730 
1287.000000	86.197573 
1286.000000	86.193888 
1285.000000	86.189304 
1284.000000	86.185776 
1283.000000	86.183780 
1282.000000	86.182287 
1281.000000	86.180293 
1280.000000	86.176995 
1279.000000	86.171103 
1278.000000	86.161800 
1277.000000	86.150550 
1276.000000	86.140336 
1275.000000	86.132527 
1274.000000	86.125717 
1273.000000	86.118247 
1272.000000	86.110687 
1271.000000	86.104691 
1270.000000	86.100152 
1269.000000	86.095124 
1268.000000	86.088705 
1267.000000	86.082538 
1266.000000	86.078563 
1265.000000	86.075855 
1264.000000	86.070580 
1263.000000	86.059301 
1262.000000	86.042247 
1261.000000	86.023278 
1260.000000	86.006164 
1259.000000	85.990378 
1258.000000	85.971284 
1257.000000	85.945660 
1256.000000	85.916772 
1255.000000	85.892271 
1254.000000	85.876222 
1253.000000	85.864926 
1252.000000	85.852002 
1251.000000	85.836252 
1250.000000	85.822537 
1249.000000	85.815938 
1248.000000	85.817408 
1247.000000	85.823824 
1246.000000	85.828607 
1245.000000	85.822713 
1244.000000	85.800350 
1243.000000	85.767497 
1242.000000	85.741900 
1241.000000	85.738976 
1240.000000	85.757040 
1239.000000	85.778182 
1238.000000	85.784363 
1237.000000	85.770983 
1236.000000	85.745254 
1235.000000	85.716352 
1234.000000	85.689517 
1233.000000	85.666754 
1232.000000	85.648380 
1231.000000	85.632413 
1230.000000	85.614934 
1229.000000	85.593454 
1228.000000	85.569857 
1227.000000	85.548955 
1226.000000	85.533814 
1225.000000	85.522820 
1224.000000	85.511387 
1223.000000	85.495920 
1222.000000	85.475810 
1221.000000	85.452272 
1220.000000	85.426560 
1219.000000	85.399745 
1218.000000	85.372960 
1217.000000	85.346347 
1216.000000	85.317987 
1215.000000	85.285474 
1214.000000	85.249098 
1213.000000	85.211874 
1212.000000	85.175168 
1211.000000	85.135915 
1210.000000	85.090513 
1209.000000	85.040706 
1208.000000	84.992588 
1207.000000	84.948810 
1206.000000	84.904578 
1205.000000	84.853659 
1204.000000	84.796170 
1203.000000	84.737655 
1202.000000	84.681862 
1201.000000	84.627673 
1200.000000	84.572935 
1199.000000	84.517765 
1198.000000	84.463080 
1197.000000	84.408203 
1196.000000	84.351223 
1195.000000	84.290643 
1194.000000	84.226239 
1193.000000	84.159312 
1192.000000	84.092194 
1191.000000	84.026227 
1190.000000	83.960420 
1189.000000	83.893671 
1188.000000	83.827547 
1187.000000	83.764356 
1186.000000	83.702890 
1185.000000	83.638988 
1184.000000	83.570145 
1183.000000	83.496478 
1182.000000	83.417475 
1181.000000	83.331903 
1180.000000	83.241988 
1179.000000	83.153594 
1178.000000	83.069635 
1177.000000	82.985640 
1176.000000	82.893840 
1175.000000	82.790140 
1174.000000	82.676796 
1173.000000	82.560836 
1172.000000	82.450267 
1171.000000	82.348190 
1170.000000	82.248964 
1169.000000	82.143600 
1168.000000	82.031332 
1167.000000	81.923575 
1166.000000	81.835131 
1165.000000	81.774267 
1164.000000	81.741601 
1163.000000	81.733677 
1162.000000	81.745259 
1161.000000	81.771104 
1160.000000	81.806770 
1159.000000	81.845246 
1158.000000	81.873536 
1157.000000	81.877349 
1156.000000	81.850479 
1155.000000	81.797107 
1154.000000	81.725357 
1153.000000	81.641869 
1152.000000	81.552451 
1151.000000	81.462561 
1150.000000	81.374366 
1149.000000	81.286924 
1148.000000	81.201422 
1147.000000	81.122474 
1146.000000	81.051773 
1145.000000	80.983811 
1144.000000	80.910550 
1143.000000	80.828419 
1142.000000	80.739937 
1141.000000	80.651316 
1140.000000	80.568926 
1139.000000	80.494376 
1138.000000	80.421962 
1137.000000	80.344434 
1136.000000	80.261692 
1135.000000	80.179885 
1134.000000	80.101936 
1133.000000	80.024110 
1132.000000	79.942925 
1131.000000	79.860018 
1130.000000	79.778366 
1129.000000	79.698406 
1128.000000	79.619604 
1127.000000	79.541478 
1126.000000	79.461725 
1125.000000	79.377641 
1124.000000	79.290230 
1123.000000	79.202696 
1122.000000	79.114712 
1121.000000	79.022706 
1120.000000	78.925636 
1119.000000	78.825313 
1118.000000	78.722283 
1117.000000	78.618049 
1116.000000	78.519709 
1115.000000	78.433268 
1114.000000	78.351992 
1113.000000	78.261175 
1112.000000	78.156158 
1111.000000	78.046314 
1110.000000	77.939181 
1109.000000	77.830945 
1108.000000	77.716719 
1107.000000	77.600070 
1106.000000	77.487056 
1105.000000	77.378583 
1104.000000	77.273181 
1103.000000	77.170398 
1102.000000	77.067352 
1101.000000	76.958551 
1100.000000	76.842765 
1099.000000	76.724649 
1098.000000	76.608139 
1097.000000	76.494079 
1096.000000	76.384814 
1095.000000	76.282587 
1094.000000	76.181842 
1093.000000	76.071983 
1092.000000	75.950715 
1091.000000	75.827422 
1090.000000	75.711886 
1089.000000	75.607153 
1088.000000	75.513463 
1087.000000	75.429261 
1086.000000	75.347501 
1085.000000	75.261670 
1084.000000	75.176574 
1083.000000	75.101877 
1082.000000	75.034056 
1081.000000	74.957976 
1080.000000	74.869280 
1079.000000	74.782077 
1078.000000	74.710250 
1077.000000	74.653393 
1076.000000	74.605237 
1075.000000	74.562384 
1074.000000	74.518922 
1073.000000	74.464321 
1072.000000	74.391778 
1071.000000	74.297613 
1070.000000	74.170143 
1069.000000	73.995038 
1068.000000	73.779202 
1067.000000	73.556866 
1066.000000	73.361786 
1065.000000	73.200959 
1064.000000	73.060771 
1063.000000	72.923597 
1062.000000	72.769008 
1061.000000	72.574926 
1060.000000	72.335070 
1059.000000	72.071157 
1058.000000	71.816889 
1057.000000	71.592484 
1056.000000	71.399798 
1055.000000	71.231975 
1054.000000	71.077914 
1053.000000	70.925343 
1052.000000	70.770913 
1051.000000	70.624388 
1050.000000	70.496463 
1049.000000	70.387254 
1048.000000	70.290645 
1047.000000	70.202016 
1046.000000	70.118230 
1045.000000	70.038477 
1044.000000	69.967626 
1043.000000	69.910429 
1042.000000	69.860313 
1041.000000	69.801919 
1040.000000	69.727290 
1039.000000	69.643861 
1038.000000	69.567386 
1037.000000	69.513660 
1036.000000	69.493234 
1035.000000	69.502530 
1034.000000	69.520517 
1033.000000	69.524089 
1032.000000	69.505362 
1031.000000	69.467032 
1030.000000	69.410920 
1029.000000	69.346612 
1028.000000	69.302651 
1027.000000	69.305829 
1026.000000	69.348036 
1025.000000	69.391793 
1024.000000	69.410546 
1023.000000	69.406716 
1022.000000	69.391352 
1021.000000	69.368149 
1020.000000	69.341607 
1019.000000	69.320192 
1018.000000	69.303138 
1017.000000	69.279901 
1016.000000	69.249200 
1015.000000	69.223778 
1014.000000	69.210709 
1013.000000	69.201893 
1012.000000	69.189763 
1011.000000	69.177946 
1010.000000	69.170854 
1009.000000	69.166938 
1008.000000	69.168134 
1007.000000	69.182432 
1006.000000	69.211104 
1005.000000	69.245573 
1004.000000	69.281654 
1003.000000	69.324948 
1002.000000	69.378796 
1001.000000	69.439659 
1000.000000	69.507016 
999.000000	 69.583579 
998.000000	 69.662653 
997.000000	 69.731056 
996.000000	 69.790103 
995.000000	 69.858601 
994.000000	 69.948129 
993.000000	 70.048650 
992.000000	 70.144911 
991.000000	 70.234616 
990.000000	 70.323440 
989.000000	 70.414591 
988.000000	 70.511851 
987.000000	 70.622295 
986.000000	 70.747148 
985.000000	 70.877560 
984.000000	 71.005582 
983.000000	 71.132502 
982.000000	 71.262706 
981.000000	 71.397551 
980.000000	 71.539591 
979.000000	 71.694304 
978.000000	 71.861778 
977.000000	 72.033444 
976.000000	 72.201957 
975.000000	 72.369199 
974.000000	 72.541761 
973.000000	 72.723576 
972.000000	 72.914425 
971.000000	 73.110306 
970.000000	 73.304476 
969.000000	 73.493262 
968.000000	 73.680418 
967.000000	 73.870817 
966.000000	 74.061764 
965.000000	 74.246380 
964.000000	 74.422729 
963.000000	 74.592738 
962.000000	 74.755792 
961.000000	 74.912057 
960.000000	 75.068890 
959.000000	 75.233599 
958.000000	 75.400853 
957.000000	 75.556968 
956.000000	 75.696167 
955.000000	 75.824287 
954.000000	 75.948431 
953.000000	 76.072101 
952.000000	 76.198521 
951.000000	 76.327928 
950.000000	 76.451988 
949.000000	 76.561254 
948.000000	 76.658348 
947.000000	 76.754011 
946.000000	 76.850127 
945.000000	 76.937162 
944.000000	 77.009096 
943.000000	 77.070339 
942.000000	 77.126921 
941.000000	 77.181541 
940.000000	 77.239370 
939.000000	 77.307572 
938.000000	 77.384725 
937.000000	 77.459673 
936.000000	 77.524873 
935.000000	 77.583563 
934.000000	 77.641679 
933.000000	 77.700900 
932.000000	 77.761845 
931.000000	 77.825238 
930.000000	 77.886886 
929.000000	 77.939695 
928.000000	 77.983953 
927.000000	 78.028465 
926.000000	 78.078872 
925.000000	 78.131597 
924.000000	 78.180786 
923.000000	 78.223356 
922.000000	 78.256027 
921.000000	 78.276886 
920.000000	 78.292796 
919.000000	 78.316152 
918.000000	 78.350237 
917.000000	 78.385460 
916.000000	 78.413477 
915.000000	 78.437406 
914.000000	 78.465276 
913.000000	 78.502605 
912.000000	 78.555733 
911.000000	 78.632651 
910.000000	 78.733356 
909.000000	 78.846165 
908.000000	 78.960037 
907.000000	 79.075448 
906.000000	 79.198074 
905.000000	 79.327957 
904.000000	 79.461072 
903.000000	 79.596846 
902.000000	 79.737496 
901.000000	 79.881626 
900.000000	 80.023353 
899.000000	 80.158111 
898.000000	 80.287596 
897.000000	 80.418436 
896.000000	 80.554333 
895.000000	 80.688277 
894.000000	 80.806260 
893.000000	 80.903391 
892.000000	 80.993388 
891.000000	 81.095564 
890.000000	 81.213131 
889.000000	 81.330744 
888.000000	 81.432903 
887.000000	 81.517708 
886.000000	 81.592767 
885.000000	 81.666151 
884.000000	 81.744113 
883.000000	 81.830443 
882.000000	 81.923972 
881.000000	 82.021697 
880.000000	 82.127100 
879.000000	 82.249880 
878.000000	 82.394758 
877.000000	 82.555545 
876.000000	 82.721687 
875.000000	 82.884820 
874.000000	 83.038123 
873.000000	 83.176961 
872.000000	 83.303656 
871.000000	 83.426515 
870.000000	 83.551485 
869.000000	 83.678981 
868.000000	 83.809207 
867.000000	 83.943400 
866.000000	 84.077712 
865.000000	 84.203362 
864.000000	 84.317131 
863.000000	 84.426110 
862.000000	 84.537659 
861.000000	 84.649746 
860.000000	 84.756857 
859.000000	 84.861218 
858.000000	 84.971394 
857.000000	 85.090916 
856.000000	 85.212969 
855.000000	 85.325503 
854.000000	 85.418726 
853.000000	 85.490414 
852.000000	 85.548638 
851.000000	 85.608002 
850.000000	 85.678342 
849.000000	 85.756619 
848.000000	 85.831889 
847.000000	 85.895874 
846.000000	 85.945790 
845.000000	 85.981068 
844.000000	 86.003824 
843.000000	 86.020672 
842.000000	 86.036540 
841.000000	 86.046081 
840.000000	 86.038127 
839.000000	 86.011118 
838.000000	 85.979454 
837.000000	 85.962113 
836.000000	 85.967450 
835.000000	 85.987897 
834.000000	 86.004166 
833.000000	 85.996094 
832.000000	 85.958615 
831.000000	 85.911306 
830.000000	 85.885380 
829.000000	 85.894778 
828.000000	 85.923305 
827.000000	 85.943779 
826.000000	 85.945111 
825.000000	 85.936142 
824.000000	 85.929234 
823.000000	 85.928520 
822.000000	 85.930029 
821.000000	 85.923951 
820.000000	 85.898605 
819.000000	 85.850105 
818.000000	 85.787556 
817.000000	 85.722488 
816.000000	 85.653743 
815.000000	 85.568563 
814.000000	 85.457533 
813.000000	 85.320591 
812.000000	 85.156484 
811.000000	 84.954062 
810.000000	 84.699665 
809.000000	 84.389163 
808.000000	 84.028525 
807.000000	 83.626788 
806.000000	 83.194586 
805.000000	 82.748151 
804.000000	 82.307812 
803.000000	 81.889161 
802.000000	 81.499583 
801.000000	 81.147639 
800.000000	 80.851017 
799.000000	 80.627046 
798.000000	 80.477829 
797.000000	 80.393532 
796.000000	 80.367109 
795.000000	 80.393182 
794.000000	 80.453186 
793.000000	 80.517112 
792.000000	 80.565869 
791.000000	 80.602199 
790.000000	 80.634710 
789.000000	 80.659088 
788.000000	 80.659086 
787.000000	 80.619030 
786.000000	 80.531917 
785.000000	 80.402471 
784.000000	 80.247541 
783.000000	 80.088997 
782.000000	 79.942211 
781.000000	 79.814409 
780.000000	 79.713361 
779.000000	 79.649187 
778.000000	 79.626450 
777.000000	 79.644297 
776.000000	 79.706429 
775.000000	 79.819335 
774.000000	 79.976396 
773.000000	 80.155281 
772.000000	 80.337474 
771.000000	 80.520534 
770.000000	 80.704941 
769.000000	 80.880196 
768.000000	 81.034329 
767.000000	 81.169496 
766.000000	 81.296691 
765.000000	 81.419427 
764.000000	 81.533996 
763.000000	 81.643532 
762.000000	 81.759464 
761.000000	 81.886516 
760.000000	 82.015458 
759.000000	 82.135439 
758.000000	 82.247982 
757.000000	 82.364064 
756.000000	 82.490094 
755.000000	 82.620370 
754.000000	 82.742277 
753.000000	 82.847087 
752.000000	 82.936593 
751.000000	 83.020356 
750.000000	 83.106175 
749.000000	 83.193769 
748.000000	 83.279208 
747.000000	 83.363926 
746.000000	 83.455008 
745.000000	 83.555504 
744.000000	 83.659440 
743.000000	 83.760863 
742.000000	 83.864837 
741.000000	 83.982443 
740.000000	 84.113400 
739.000000	 84.239680 
738.000000	 84.341642 
737.000000	 84.418332 
736.000000	 84.486703 
735.000000	 84.561285 
734.000000	 84.640196 
733.000000	 84.712137 
732.000000	 84.770216 
731.000000	 84.814283 
730.000000	 84.845100 
729.000000	 84.864332 
728.000000	 84.880434 
727.000000	 84.905936 
726.000000	 84.943791 
725.000000	 84.982336 
724.000000	 85.009519 
723.000000	 85.028971 
722.000000	 85.056848 
721.000000	 85.103472 
720.000000	 85.161392 
719.000000	 85.210963 
718.000000	 85.235627 
717.000000	 85.234034 
716.000000	 85.221715 
715.000000	 85.220513 
714.000000	 85.240449 
713.000000	 85.269439 
712.000000	 85.283252 
711.000000	 85.265547 
710.000000	 85.217603 
709.000000	 85.153038 
708.000000	 85.089405 
707.000000	 85.042240 
706.000000	 85.015078 
705.000000	 84.991037 
704.000000	 84.940733 
703.000000	 84.843090 
702.000000	 84.697145 
701.000000	 84.512553 
700.000000	 84.293650 
699.000000	 84.038956 
698.000000	 83.754808 
697.000000	 83.467743 
696.000000	 83.223405 
695.000000	 83.069023 
694.000000	 83.031208 
693.000000	 83.103323 
692.000000	 83.250080 
691.000000	 83.428690 
690.000000	 83.609971 
689.000000	 83.781800 
688.000000	 83.937613 
687.000000	 84.070308 
686.000000	 84.180796 
685.000000	 84.282931 
684.000000	 84.391627 
683.000000	 84.508153 
682.000000	 84.619178 
681.000000	 84.709246 
680.000000	 84.775804 
679.000000	 84.836410 
678.000000	 84.917745 
677.000000	 85.028372 
676.000000	 85.147790 
675.000000	 85.248939 
674.000000	 85.327150 
673.000000	 85.399584 
672.000000	 85.481559 
671.000000	 85.573968 
670.000000	 85.670877 
669.000000	 85.763904 
668.000000	 85.827676 
667.000000	 85.842414 
666.000000	 85.833572 
665.000000	 85.832575 
664.000000	 85.856008 
663.000000	 85.908823 
662.000000	 85.978724 
661.000000	 86.044581 
660.000000	 86.095589 
659.000000	 86.134131 
658.000000	 86.160257 
657.000000	 86.165683 
656.000000	 86.152553 
655.000000	 86.144341 
654.000000	 86.160802 
653.000000	 86.191492 
652.000000	 86.212265 
651.000000	 86.219837 
650.000000	 86.233554 

