PE IR                   SPECTRUM    ASCII       PEDS        1.60        
  -1
~SP.SP
22/12/06
15:03:46.00
23/01/09
14:47:14.00
Administrator

650.000000
4









FRONTIER FT-IR,CPU32 MAIN 00.09.9951 07-SEPTEMBER-2011 11:49:41
MIR TGS
MIR
OPTKBR
90694
0.200000

4.000000
STRONG
RATIO
SPECTRUM
MAGNITUDE
MIRACLE ATR
DOUBLE

COMBINED


0


#HDR
-1
-1
#GR
CM-1
%T
0.00002384185791015625
0.0
4000.000000
-1.000000
3351
8
94.698429
82.325161
#DATA
4000.000000	94.654384 
3999.000000	94.649014 
3998.000000	94.648311 
3997.000000	94.651664 
3996.000000	94.656252 
3995.000000	94.658804 
3994.000000	94.657648 
3993.000000	94.653556 
3992.000000	94.648907 
3991.000000	94.645316 
3990.000000	94.642263 
3989.000000	94.638076 
3988.000000	94.632082 
3987.000000	94.625870 
3986.000000	94.622410 
3985.000000	94.623757 
3984.000000	94.629185 
3983.000000	94.635399 
3982.000000	94.638845 
3981.000000	94.637839 
3980.000000	94.632746 
3979.000000	94.624784 
3978.000000	94.615082 
3977.000000	94.604612 
3976.000000	94.594469 
3975.000000	94.586160 
3974.000000	94.581545 
3973.000000	94.581867 
3972.000000	94.586408 
3971.000000	94.592573 
3970.000000	94.598042 
3969.000000	94.602848 
3968.000000	94.608611 
3967.000000	94.615908 
3966.000000	94.623151 
3965.000000	94.628139 
3964.000000	94.630045 
3963.000000	94.629633 
3962.000000	94.628233 
3961.000000	94.626831 
3960.000000	94.625706 
3959.000000	94.624256 
3958.000000	94.621156 
3957.000000	94.615513 
3956.000000	94.608466 
3955.000000	94.603360 
3954.000000	94.603466 
3953.000000	94.609106 
3952.000000	94.617000 
3951.000000	94.622790 
3950.000000	94.624948 
3949.000000	94.625777 
3948.000000	94.628346 
3947.000000	94.632932 
3946.000000	94.637047 
3945.000000	94.638350 
3944.000000	94.636921 
3943.000000	94.634973 
3942.000000	94.634955 
3941.000000	94.637526 
3940.000000	94.640909 
3939.000000	94.642189 
3938.000000	94.639641 
3937.000000	94.634287 
3936.000000	94.629239 
3935.000000	94.627117 
3934.000000	94.627986 
3933.000000	94.629632 
3932.000000	94.629694 
3931.000000	94.627491 
3930.000000	94.623904 
3929.000000	94.620160 
3928.000000	94.616844 
3927.000000	94.613894 
3926.000000	94.611291 
3925.000000	94.609652 
3924.000000	94.609848 
3923.000000	94.611770 
3922.000000	94.613781 
3921.000000	94.614062 
3920.000000	94.612296 
3919.000000	94.609660 
3918.000000	94.607246 
3917.000000	94.604925 
3916.000000	94.602131 
3915.000000	94.599278 
3914.000000	94.597766 
3913.000000	94.598762 
3912.000000	94.602204 
3911.000000	94.606846 
3910.000000	94.610931 
3909.000000	94.613106 
3908.000000	94.612785 
3907.000000	94.609783 
3906.000000	94.604113 
3905.000000	94.596172 
3904.000000	94.587569 
3903.000000	94.581002 
3902.000000	94.578415 
3901.000000	94.579620 
3900.000000	94.582846 
3899.000000	94.586420 
3898.000000	94.589659 
3897.000000	94.592030 
3896.000000	94.592478 
3895.000000	94.590488 
3894.000000	94.587235 
3893.000000	94.584914 
3892.000000	94.584104 
3891.000000	94.582426 
3890.000000	94.577226 
3889.000000	94.568946 
3888.000000	94.561178 
3887.000000	94.557105 
3886.000000	94.556526 
3885.000000	94.557069 
3884.000000	94.558150 
3883.000000	94.562184 
3882.000000	94.571469 
3881.000000	94.584061 
3880.000000	94.593892 
3879.000000	94.596554 
3878.000000	94.593646 
3877.000000	94.590557 
3876.000000	94.590759 
3875.000000	94.592527 
3874.000000	94.592324 
3873.000000	94.590484 
3872.000000	94.590751 
3871.000000	94.594140 
3870.000000	94.596895 
3869.000000	94.596856 
3868.000000	94.597021 
3867.000000	94.600907 
3866.000000	94.607460 
3865.000000	94.611516 
3864.000000	94.609328 
3863.000000	94.602621 
3862.000000	94.596062 
3861.000000	94.592345 
3860.000000	94.589879 
3859.000000	94.584830 
3858.000000	94.575032 
3857.000000	94.562560 
3856.000000	94.552787 
3855.000000	94.549478 
3854.000000	94.549901 
3853.000000	94.550172 
3852.000000	94.549729 
3851.000000	94.548720 
3850.000000	94.547229 
3849.000000	94.546368 
3848.000000	94.547290 
3847.000000	94.550024 
3846.000000	94.552812 
3845.000000	94.553300 
3844.000000	94.550652 
3843.000000	94.546256 
3842.000000	94.542106 
3841.000000	94.538899 
3840.000000	94.535711 
3839.000000	94.532107 
3838.000000	94.529686 
3837.000000	94.529865 
3836.000000	94.531314 
3835.000000	94.531503 
3834.000000	94.530061 
3833.000000	94.529265 
3832.000000	94.531109 
3831.000000	94.535024 
3830.000000	94.538957 
3829.000000	94.541931 
3828.000000	94.544618 
3827.000000	94.547614 
3826.000000	94.550311 
3825.000000	94.552076 
3824.000000	94.553539 
3823.000000	94.555809 
3822.000000	94.558141 
3821.000000	94.558047 
3820.000000	94.554529 
3819.000000	94.549414 
3818.000000	94.546073 
3817.000000	94.546670 
3816.000000	94.550711 
3815.000000	94.555565 
3814.000000	94.558851 
3813.000000	94.560323 
3812.000000	94.560948 
3811.000000	94.561438 
3810.000000	94.561711 
3809.000000	94.561520 
3808.000000	94.561132 
3807.000000	94.561222 
3806.000000	94.562024 
3805.000000	94.563093 
3804.000000	94.563991 
3803.000000	94.564684 
3802.000000	94.565004 
3801.000000	94.564700 
3800.000000	94.563948 
3799.000000	94.563223 
3798.000000	94.563125 
3797.000000	94.564117 
3796.000000	94.566160 
3795.000000	94.568619 
3794.000000	94.570611 
3793.000000	94.571617 
3792.000000	94.571788 
3791.000000	94.571641 
3790.000000	94.571341 
3789.000000	94.570440 
3788.000000	94.568615 
3787.000000	94.566394 
3786.000000	94.564818 
3785.000000	94.564157 
3784.000000	94.563438 
3783.000000	94.561673 
3782.000000	94.559208 
3781.000000	94.557295 
3780.000000	94.556318 
3779.000000	94.555302 
3778.000000	94.553451 
3777.000000	94.551393 
3776.000000	94.550155 
3775.000000	94.549690 
3774.000000	94.549226 
3773.000000	94.548675 
3772.000000	94.548489 
3771.000000	94.547970 
3770.000000	94.545321 
3769.000000	94.540361 
3768.000000	94.535779 
3767.000000	94.534604 
3766.000000	94.537091 
3765.000000	94.540305 
3764.000000	94.540862 
3763.000000	94.537660 
3762.000000	94.531999 
3761.000000	94.526305 
3760.000000	94.522396 
3759.000000	94.520280 
3758.000000	94.518097 
3757.000000	94.514171 
3756.000000	94.509036 
3755.000000	94.504640 
3754.000000	94.501965 
3753.000000	94.499866 
3752.000000	94.496670 
3751.000000	94.492549 
3750.000000	94.488857 
3749.000000	94.485598 
3748.000000	94.482564 
3747.000000	94.481072 
3746.000000	94.482142 
3745.000000	94.483412 
3744.000000	94.482381 
3743.000000	94.480322 
3742.000000	94.479412 
3741.000000	94.480258 
3740.000000	94.482304 
3739.000000	94.484366 
3738.000000	94.484897 
3737.000000	94.482916 
3736.000000	94.480146 
3735.000000	94.480641 
3734.000000	94.486244 
3733.000000	94.493660 
3732.000000	94.497602 
3731.000000	94.495417 
3730.000000	94.488205 
3729.000000	94.479448 
3728.000000	94.473035 
3727.000000	94.470992 
3726.000000	94.472620 
3725.000000	94.475959 
3724.000000	94.479851 
3723.000000	94.483979 
3722.000000	94.487373 
3721.000000	94.488679 
3720.000000	94.487405 
3719.000000	94.483911 
3718.000000	94.477947 
3717.000000	94.468601 
3716.000000	94.456871 
3715.000000	94.446037 
3714.000000	94.438836 
3713.000000	94.434695 
3712.000000	94.430312 
3711.000000	94.424225 
3710.000000	94.418606 
3709.000000	94.416516 
3708.000000	94.418928 
3707.000000	94.424208 
3706.000000	94.430157 
3705.000000	94.435770 
3704.000000	94.440972 
3703.000000	94.444736 
3702.000000	94.444294 
3701.000000	94.437939 
3700.000000	94.427926 
3699.000000	94.419212 
3698.000000	94.414988 
3697.000000	94.413605 
3696.000000	94.410446 
3695.000000	94.402532 
3694.000000	94.391499 
3693.000000	94.382756 
3692.000000	94.381549 
3691.000000	94.389208 
3690.000000	94.400736 
3689.000000	94.407780 
3688.000000	94.406194 
3687.000000	94.398713 
3686.000000	94.390545 
3685.000000	94.384041 
3684.000000	94.377849 
3683.000000	94.369526 
3682.000000	94.358022 
3681.000000	94.343700 
3680.000000	94.327614 
3679.000000	94.311705 
3678.000000	94.299243 
3677.000000	94.292621 
3676.000000	94.289368 
3675.000000	94.284178 
3674.000000	94.274452 
3673.000000	94.262333 
3672.000000	94.252134 
3671.000000	94.246060 
3670.000000	94.241599 
3669.000000	94.235686 
3668.000000	94.229134 
3667.000000	94.224978 
3666.000000	94.224596 
3665.000000	94.225515 
3664.000000	94.223111 
3663.000000	94.214842 
3662.000000	94.202119 
3661.000000	94.188088 
3660.000000	94.174939 
3659.000000	94.163037 
3658.000000	94.151581 
3657.000000	94.138600 
3656.000000	94.122202 
3655.000000	94.102872 
3654.000000	94.083506 
3653.000000	94.067728 
3652.000000	94.056968 
3651.000000	94.047682 
3650.000000	94.033277 
3649.000000	94.012196 
3648.000000	93.990439 
3647.000000	93.973941 
3646.000000	93.964123 
3645.000000	93.960117 
3644.000000	93.960880 
3643.000000	93.964935 
3642.000000	93.969477 
3641.000000	93.970940 
3640.000000	93.966886 
3639.000000	93.956930 
3638.000000	93.942671 
3637.000000	93.927010 
3636.000000	93.913062 
3635.000000	93.902481 
3634.000000	93.894237 
3633.000000	93.885481 
3632.000000	93.873801 
3631.000000	93.858453 
3630.000000	93.840273 
3629.000000	93.822903 
3628.000000	93.812613 
3627.000000	93.812329 
3626.000000	93.820102 
3625.000000	93.832861 
3624.000000	93.847636 
3623.000000	93.861813 
3622.000000	93.874272 
3621.000000	93.885153 
3620.000000	93.893277 
3619.000000	93.895430 
3618.000000	93.889348 
3617.000000	93.876390 
3616.000000	93.860766 
3615.000000	93.846155 
3614.000000	93.833658 
3613.000000	93.823556 
3612.000000	93.818005 
3611.000000	93.820094 
3610.000000	93.830311 
3609.000000	93.845214 
3608.000000	93.859272 
3607.000000	93.869353 
3606.000000	93.876865 
3605.000000	93.885036 
3604.000000	93.895231 
3603.000000	93.905280 
3602.000000	93.911940 
3601.000000	93.914870 
3600.000000	93.917247 
3599.000000	93.921991 
3598.000000	93.928287 
3597.000000	93.932671 
3596.000000	93.932899 
3595.000000	93.929563 
3594.000000	93.924672 
3593.000000	93.919559 
3592.000000	93.914641 
3591.000000	93.911078 
3590.000000	93.911062 
3589.000000	93.915555 
3588.000000	93.921481 
3587.000000	93.923392 
3586.000000	93.918861 
3585.000000	93.910667 
3584.000000	93.904396 
3583.000000	93.903972 
3582.000000	93.909264 
3581.000000	93.916557 
3580.000000	93.921317 
3579.000000	93.921036 
3578.000000	93.915942 
3577.000000	93.907939 
3576.000000	93.898952 
3575.000000	93.890121 
3574.000000	93.881642 
3573.000000	93.873587 
3572.000000	93.866562 
3571.000000	93.861567 
3570.000000	93.859037 
3569.000000	93.857982 
3568.000000	93.856191 
3567.000000	93.851916 
3566.000000	93.845218 
3565.000000	93.837624 
3564.000000	93.831483 
3563.000000	93.829323 
3562.000000	93.832203 
3561.000000	93.838500 
3560.000000	93.844846 
3559.000000	93.848742 
3558.000000	93.849735 
3557.000000	93.848332 
3556.000000	93.844905 
3555.000000	93.840120 
3554.000000	93.835537 
3553.000000	93.832784 
3552.000000	93.832179 
3551.000000	93.832510 
3550.000000	93.832223 
3549.000000	93.830578 
3548.000000	93.827809 
3547.000000	93.824536 
3546.000000	93.821207 
3545.000000	93.818015 
3544.000000	93.815276 
3543.000000	93.813505 
3542.000000	93.812837 
3541.000000	93.812618 
3540.000000	93.811925 
3539.000000	93.810579 
3538.000000	93.809317 
3537.000000	93.808776 
3536.000000	93.808664 
3535.000000	93.808069 
3534.000000	93.806432 
3533.000000	93.804021 
3532.000000	93.801631 
3531.000000	93.800006 
3530.000000	93.799364 
3529.000000	93.799243 
3528.000000	93.798795 
3527.000000	93.797461 
3526.000000	93.795422 
3525.000000	93.793345 
3524.000000	93.791721 
3523.000000	93.790528 
3522.000000	93.789560 
3521.000000	93.788845 
3520.000000	93.788642 
3519.000000	93.789103 
3518.000000	93.790007 
3517.000000	93.790672 
3516.000000	93.790171 
3515.000000	93.787847 
3514.000000	93.783841 
3513.000000	93.779211 
3512.000000	93.775364 
3511.000000	93.773112 
3510.000000	93.772283 
3509.000000	93.772026 
3508.000000	93.771532 
3507.000000	93.770671 
3506.000000	93.769991 
3505.000000	93.770071 
3504.000000	93.770716 
3503.000000	93.770822 
3502.000000	93.769397 
3501.000000	93.766626 
3500.000000	93.763743 
3499.000000	93.761781 
3498.000000	93.760596 
3497.000000	93.759127 
3496.000000	93.756398 
3495.000000	93.752191 
3494.000000	93.747066 
3493.000000	93.742091 
3492.000000	93.738431 
3491.000000	93.736799 
3490.000000	93.736959 
3489.000000	93.737713 
3488.000000	93.737628 
3487.000000	93.735982 
3486.000000	93.732994 
3485.000000	93.729263 
3484.000000	93.725129 
3483.000000	93.720592 
3482.000000	93.715706 
3481.000000	93.710901 
3480.000000	93.706848 
3479.000000	93.704014 
3478.000000	93.702369 
3477.000000	93.701452 
3476.000000	93.700638 
3475.000000	93.699309 
3474.000000	93.696805 
3473.000000	93.692486 
3472.000000	93.686303 
3471.000000	93.679420 
3470.000000	93.673762 
3469.000000	93.670496 
3468.000000	93.668968 
3467.000000	93.667362 
3466.000000	93.664640 
3465.000000	93.661410 
3464.000000	93.658824 
3463.000000	93.657108 
3462.000000	93.655382 
3461.000000	93.652601 
3460.000000	93.648382 
3459.000000	93.643194 
3458.000000	93.638140 
3457.000000	93.634397 
3456.000000	93.632489 
3455.000000	93.631862 
3454.000000	93.631403 
3453.000000	93.630408 
3452.000000	93.628878 
3451.000000	93.627004 
3450.000000	93.624624 
3449.000000	93.621434 
3448.000000	93.617588 
3447.000000	93.613831 
3446.000000	93.610883 
3445.000000	93.608890 
3444.000000	93.607685 
3443.000000	93.607408 
3442.000000	93.608515 
3441.000000	93.611073 
3440.000000	93.614316 
3439.000000	93.617051 
3438.000000	93.618371 
3437.000000	93.617867 
3436.000000	93.615480 
3435.000000	93.611480 
3434.000000	93.606473 
3433.000000	93.601136 
3432.000000	93.595982 
3431.000000	93.591600 
3430.000000	93.588836 
3429.000000	93.588240 
3428.000000	93.589198 
3427.000000	93.589963 
3426.000000	93.588811 
3425.000000	93.585110 
3424.000000	93.579316 
3423.000000	93.572488 
3422.000000	93.566038 
3421.000000	93.561521 
3420.000000	93.559984 
3419.000000	93.561256 
3418.000000	93.564122 
3417.000000	93.567409 
3416.000000	93.570622 
3415.000000	93.573388 
3414.000000	93.574765 
3413.000000	93.573741 
3412.000000	93.570475 
3411.000000	93.566525 
3410.000000	93.563455 
3409.000000	93.561388 
3408.000000	93.559325 
3407.000000	93.556707 
3406.000000	93.554111 
3405.000000	93.552315 
3404.000000	93.551244 
3403.000000	93.550202 
3402.000000	93.548837 
3401.000000	93.547407 
3400.000000	93.546167 
3399.000000	93.544998 
3398.000000	93.543794 
3397.000000	93.542848 
3396.000000	93.542550 
3395.000000	93.542829 
3394.000000	93.543032 
3393.000000	93.542394 
3392.000000	93.540711 
3391.000000	93.538638 
3390.000000	93.537079 
3389.000000	93.536010 
3388.000000	93.534191 
3387.000000	93.530620 
3386.000000	93.526269 
3385.000000	93.523544 
3384.000000	93.523768 
3383.000000	93.525887 
3382.000000	93.527934 
3381.000000	93.529148 
3380.000000	93.530084 
3379.000000	93.531515 
3378.000000	93.534233 
3377.000000	93.539240 
3376.000000	93.546660 
3375.000000	93.554479 
3374.000000	93.559721 
3373.000000	93.561414 
3372.000000	93.561460 
3371.000000	93.562205 
3370.000000	93.563795 
3369.000000	93.564584 
3368.000000	93.563557 
3367.000000	93.561478 
3366.000000	93.559974 
3365.000000	93.560190 
3364.000000	93.562341 
3363.000000	93.565844 
3362.000000	93.569502 
3361.000000	93.572021 
3360.000000	93.572764 
3359.000000	93.572074 
3358.000000	93.570928 
3357.000000	93.570340 
3356.000000	93.570947 
3355.000000	93.572835 
3354.000000	93.575504 
3353.000000	93.578125 
3352.000000	93.580031 
3351.000000	93.581056 
3350.000000	93.581436 
3349.000000	93.581528 
3348.000000	93.581700 
3347.000000	93.582328 
3346.000000	93.583719 
3345.000000	93.585973 
3344.000000	93.588909 
3343.000000	93.592086 
3342.000000	93.594878 
3341.000000	93.596670 
3340.000000	93.597144 
3339.000000	93.596569 
3338.000000	93.595752 
3337.000000	93.595579 
3336.000000	93.596496 
3335.000000	93.598327 
3334.000000	93.600442 
3333.000000	93.602098 
3332.000000	93.602797 
3331.000000	93.602499 
3330.000000	93.601627 
3329.000000	93.600820 
3328.000000	93.600514 
3327.000000	93.600734 
3326.000000	93.601278 
3325.000000	93.602017 
3324.000000	93.602970 
3323.000000	93.604166 
3322.000000	93.605606 
3321.000000	93.607440 
3320.000000	93.609988 
3319.000000	93.613353 
3318.000000	93.617029 
3317.000000	93.620070 
3316.000000	93.621782 
3315.000000	93.622107 
3314.000000	93.621347 
3313.000000	93.619781 
3312.000000	93.617730 
3311.000000	93.615857 
3310.000000	93.615052 
3309.000000	93.615818 
3308.000000	93.617832 
3307.000000	93.620179 
3306.000000	93.622101 
3305.000000	93.623577 
3304.000000	93.625113 
3303.000000	93.627017 
3302.000000	93.628879 
3301.000000	93.629897 
3300.000000	93.629761 
3299.000000	93.629090 
3298.000000	93.628989 
3297.000000	93.630022 
3296.000000	93.631847 
3295.000000	93.633671 
3294.000000	93.634986 
3293.000000	93.635845 
3292.000000	93.636632 
3291.000000	93.637766 
3290.000000	93.639472 
3289.000000	93.641593 
3288.000000	93.643630 
3287.000000	93.645154 
3286.000000	93.646193 
3285.000000	93.647143 
3284.000000	93.648344 
3283.000000	93.649795 
3282.000000	93.651294 
3281.000000	93.652732 
3280.000000	93.654159 
3279.000000	93.655651 
3278.000000	93.657203 
3277.000000	93.658758 
3276.000000	93.660287 
3275.000000	93.661816 
3274.000000	93.663394 
3273.000000	93.665032 
3272.000000	93.666684 
3271.000000	93.668278 
3270.000000	93.669778 
3269.000000	93.671221 
3268.000000	93.672688 
3267.000000	93.674221 
3266.000000	93.675805 
3265.000000	93.677420 
3264.000000	93.679059 
3263.000000	93.680685 
3262.000000	93.682217 
3261.000000	93.683619 
3260.000000	93.684949 
3259.000000	93.686301 
3258.000000	93.687724 
3257.000000	93.689215 
3256.000000	93.690767 
3255.000000	93.692359 
3254.000000	93.693937 
3253.000000	93.695440 
3252.000000	93.696850 
3251.000000	93.698215 
3250.000000	93.699625 
3249.000000	93.701113 
3248.000000	93.702606 
3247.000000	93.703973 
3246.000000	93.705190 
3245.000000	93.706393 
3244.000000	93.707760 
3243.000000	93.709354 
3242.000000	93.711133 
3241.000000	93.713018 
3240.000000	93.714902 
3239.000000	93.716657 
3238.000000	93.718194 
3237.000000	93.719517 
3236.000000	93.720738 
3235.000000	93.722045 
3234.000000	93.723580 
3233.000000	93.725250 
3232.000000	93.726710 
3231.000000	93.727706 
3230.000000	93.728500 
3229.000000	93.729758 
3228.000000	93.731842 
3227.000000	93.734343 
3226.000000	93.736456 
3225.000000	93.737853 
3224.000000	93.738897 
3223.000000	93.740076 
3222.000000	93.741598 
3221.000000	93.743656 
3220.000000	93.746657 
3219.000000	93.750774 
3218.000000	93.755376 
3217.000000	93.759243 
3216.000000	93.761432 
3215.000000	93.761792 
3214.000000	93.760969 
3213.000000	93.760054 
3212.000000	93.759941 
3211.000000	93.760746 
3210.000000	93.761924 
3209.000000	93.763189 
3208.000000	93.765139 
3207.000000	93.768469 
3206.000000	93.772729 
3205.000000	93.776608 
3204.000000	93.779554 
3203.000000	93.782310 
3202.000000	93.785635 
3201.000000	93.789237 
3200.000000	93.792401 
3199.000000	93.794923 
3198.000000	93.796779 
3197.000000	93.797554 
3196.000000	93.797159 
3195.000000	93.796716 
3194.000000	93.797772 
3193.000000	93.800766 
3192.000000	93.805151 
3191.000000	93.810823 
3190.000000	93.818227 
3189.000000	93.826714 
3188.000000	93.833943 
3187.000000	93.837773 
3186.000000	93.838210 
3185.000000	93.837215 
3184.000000	93.836921 
3183.000000	93.838192 
3182.000000	93.840433 
3181.000000	93.842236 
3180.000000	93.842671 
3179.000000	93.842398 
3178.000000	93.843086 
3177.000000	93.845375 
3176.000000	93.848184 
3175.000000	93.850556 
3174.000000	93.853282 
3173.000000	93.857724 
3172.000000	93.863732 
3171.000000	93.869977 
3170.000000	93.875856 
3169.000000	93.881526 
3168.000000	93.886129 
3167.000000	93.887795 
3166.000000	93.886029 
3165.000000	93.882842 
3164.000000	93.880634 
3163.000000	93.879575 
3162.000000	93.878154 
3161.000000	93.875656 
3160.000000	93.873102 
3159.000000	93.872025 
3158.000000	93.873066 
3157.000000	93.875617 
3156.000000	93.878318 
3155.000000	93.880101 
3154.000000	93.881202 
3153.000000	93.882780 
3152.000000	93.885049 
3151.000000	93.886310 
3150.000000	93.884891 
3149.000000	93.881931 
3148.000000	93.880953 
3147.000000	93.884072 
3146.000000	93.889685 
3145.000000	93.894288 
3144.000000	93.896311 
3143.000000	93.897125 
3142.000000	93.898641 
3141.000000	93.901293 
3140.000000	93.904523 
3139.000000	93.908001 
3138.000000	93.911528 
3137.000000	93.914358 
3136.000000	93.915701 
3135.000000	93.915894 
3134.000000	93.916339 
3133.000000	93.918050 
3132.000000	93.920763 
3131.000000	93.923625 
3130.000000	93.926238 
3129.000000	93.928714 
3128.000000	93.931239 
3127.000000	93.934102 
3126.000000	93.937799 
3125.000000	93.942472 
3124.000000	93.947287 
3123.000000	93.950946 
3122.000000	93.952981 
3121.000000	93.954202 
3120.000000	93.955849 
3119.000000	93.958426 
3118.000000	93.961633 
3117.000000	93.965035 
3116.000000	93.968313 
3115.000000	93.971101 
3114.000000	93.973120 
3113.000000	93.974535 
3112.000000	93.975853 
3111.000000	93.977332 
3110.000000	93.978803 
3109.000000	93.980241 
3108.000000	93.982162 
3107.000000	93.985122 
3106.000000	93.988931 
3105.000000	93.992659 
3104.000000	93.995463 
3103.000000	93.997236 
3102.000000	93.998405 
3101.000000	93.999441 
3100.000000	94.000678 
3099.000000	94.002370 
3098.000000	94.004659 
3097.000000	94.007459 
3096.000000	94.010526 
3095.000000	94.013612 
3094.000000	94.016460 
3093.000000	94.018774 
3092.000000	94.020472 
3091.000000	94.021924 
3090.000000	94.023656 
3089.000000	94.025743 
3088.000000	94.027701 
3087.000000	94.029030 
3086.000000	94.029649 
3085.000000	94.029792 
3084.000000	94.029840 
3083.000000	94.030410 
3082.000000	94.032222 
3081.000000	94.035448 
3080.000000	94.039153 
3079.000000	94.041840 
3078.000000	94.042930 
3077.000000	94.043296 
3076.000000	94.044210 
3075.000000	94.045815 
3074.000000	94.047082 
3073.000000	94.047212 
3072.000000	94.046714 
3071.000000	94.046921 
3070.000000	94.048683 
3069.000000	94.051773 
3068.000000	94.055409 
3067.000000	94.059114 
3066.000000	94.063004 
3065.000000	94.067442 
3064.000000	94.072485 
3063.000000	94.077476 
3062.000000	94.081067 
3061.000000	94.081958 
3060.000000	94.080163 
3059.000000	94.077633 
3058.000000	94.077103 
3057.000000	94.079873 
3056.000000	94.084686 
3055.000000	94.088903 
3054.000000	94.090956 
3053.000000	94.091589 
3052.000000	94.092697 
3051.000000	94.095181 
3050.000000	94.098294 
3049.000000	94.101106 
3048.000000	94.104051 
3047.000000	94.108230 
3046.000000	94.113354 
3045.000000	94.117435 
3044.000000	94.119045 
3043.000000	94.119183 
3042.000000	94.120216 
3041.000000	94.123474 
3040.000000	94.128635 
3039.000000	94.134903 
3038.000000	94.141693 
3037.000000	94.148349 
3036.000000	94.154253 
3035.000000	94.159341 
3034.000000	94.163726 
3033.000000	94.166901 
3032.000000	94.168410 
3031.000000	94.169512 
3030.000000	94.172793 
3029.000000	94.179501 
3028.000000	94.188259 
3027.000000	94.196846 
3026.000000	94.204215 
3025.000000	94.210231 
3024.000000	94.214842 
3023.000000	94.218973 
3022.000000	94.225381 
3021.000000	94.236820 
3020.000000	94.253239 
3019.000000	94.271542 
3018.000000	94.288110 
3017.000000	94.301006 
3016.000000	94.310200 
3015.000000	94.316996 
3014.000000	94.323458 
3013.000000	94.331225 
3012.000000	94.340190 
3011.000000	94.348723 
3010.000000	94.355427 
3009.000000	94.360410 
3008.000000	94.364961 
3007.000000	94.370672 
3006.000000	94.378980 
3005.000000	94.390824 
3004.000000	94.406038 
3003.000000	94.423025 
3002.000000	94.439257 
3001.000000	94.452396 
3000.000000	94.461414 
2999.000000	94.467021 
2998.000000	94.470959 
2997.000000	94.474655 
2996.000000	94.478753 
2995.000000	94.484052 
2994.000000	94.492220 
2993.000000	94.504684 
2992.000000	94.520786 
2991.000000	94.537575 
2990.000000	94.551394 
2989.000000	94.559413 
2988.000000	94.560150 
2987.000000	94.553809 
2986.000000	94.542738 
2985.000000	94.531006 
2984.000000	94.522653 
2983.000000	94.519844 
2982.000000	94.522223 
2981.000000	94.527447 
2980.000000	94.532564 
2979.000000	94.535743 
2978.000000	94.537152 
2977.000000	94.538181 
2976.000000	94.539824 
2975.000000	94.541981 
2974.000000	94.544135 
2973.000000	94.546280 
2972.000000	94.549146 
2971.000000	94.553611 
2970.000000	94.559650 
2969.000000	94.565711 
2968.000000	94.569606 
2967.000000	94.570504 
2966.000000	94.569632 
2965.000000	94.568488 
2964.000000	94.567020 
2963.000000	94.564593 
2962.000000	94.562143 
2961.000000	94.561622 
2960.000000	94.563044 
2959.000000	94.563614 
2958.000000	94.560834 
2957.000000	94.555747 
2956.000000	94.552206 
2955.000000	94.553278 
2954.000000	94.558800 
2953.000000	94.565733 
2952.000000	94.570197 
2951.000000	94.569868 
2950.000000	94.565431 
2949.000000	94.559884 
2948.000000	94.555931 
2947.000000	94.553927 
2946.000000	94.552458 
2945.000000	94.550571 
2944.000000	94.548965 
2943.000000	94.549181 
2942.000000	94.552266 
2941.000000	94.558421 
2940.000000	94.567416 
2939.000000	94.578742 
2938.000000	94.591160 
2937.000000	94.602549 
2936.000000	94.610987 
2935.000000	94.616380 
2934.000000	94.620705 
2933.000000	94.626185 
2932.000000	94.633323 
2931.000000	94.640914 
2930.000000	94.647576 
2929.000000	94.652819 
2928.000000	94.657005 
2927.000000	94.660651 
2926.000000	94.663352 
2925.000000	94.663122 
2924.000000	94.657882 
2923.000000	94.648557 
2922.000000	94.639698 
2921.000000	94.635280 
2920.000000	94.634400 
2919.000000	94.633174 
2918.000000	94.630524 
2917.000000	94.629445 
2916.000000	94.631845 
2915.000000	94.634601 
2914.000000	94.632690 
2913.000000	94.624702 
2912.000000	94.613611 
2911.000000	94.603120 
2910.000000	94.595053 
2909.000000	94.589985 
2908.000000	94.588159 
2907.000000	94.588846 
2906.000000	94.589939 
2905.000000	94.589217 
2904.000000	94.585979 
2903.000000	94.581215 
2902.000000	94.576489 
2901.000000	94.572333 
2900.000000	94.567731 
2899.000000	94.561435 
2898.000000	94.554094 
2897.000000	94.548689 
2896.000000	94.547896 
2895.000000	94.551071 
2894.000000	94.554456 
2893.000000	94.554620 
2892.000000	94.551116 
2891.000000	94.545772 
2890.000000	94.540400 
2889.000000	94.535788 
2888.000000	94.532252 
2887.000000	94.530147 
2886.000000	94.529616 
2885.000000	94.530153 
2884.000000	94.530539 
2883.000000	94.529252 
2882.000000	94.525329 
2881.000000	94.519335 
2880.000000	94.513374 
2879.000000	94.509444 
2878.000000	94.507479 
2877.000000	94.505360 
2876.000000	94.501305 
2875.000000	94.496025 
2874.000000	94.492156 
2873.000000	94.491750 
2872.000000	94.494738 
2871.000000	94.499465 
2870.000000	94.504021 
2869.000000	94.507084 
2868.000000	94.508125 
2867.000000	94.507303 
2866.000000	94.504969 
2865.000000	94.501151 
2864.000000	94.496006 
2863.000000	94.490829 
2862.000000	94.487619 
2861.000000	94.486973 
2860.000000	94.487119 
2859.000000	94.485981 
2858.000000	94.483821 
2857.000000	94.482825 
2856.000000	94.484082 
2855.000000	94.485785 
2854.000000	94.484524 
2853.000000	94.477864 
2852.000000	94.465757 
2851.000000	94.450541 
2850.000000	94.435827 
2849.000000	94.424466 
2848.000000	94.416959 
2847.000000	94.411890 
2846.000000	94.407816 
2845.000000	94.404411 
2844.000000	94.401734 
2843.000000	94.399065 
2842.000000	94.395138 
2841.000000	94.389610 
2840.000000	94.383918 
2839.000000	94.380282 
2838.000000	94.379645 
2837.000000	94.380716 
2836.000000	94.381339 
2835.000000	94.380797 
2834.000000	94.380212 
2833.000000	94.380682 
2832.000000	94.381907 
2831.000000	94.382956 
2830.000000	94.383328 
2829.000000	94.382553 
2828.000000	94.379757 
2827.000000	94.374956 
2826.000000	94.370270 
2825.000000	94.368443 
2824.000000	94.370140 
2823.000000	94.373595 
2822.000000	94.376643 
2821.000000	94.378038 
2820.000000	94.376962 
2819.000000	94.372918 
2818.000000	94.366816 
2817.000000	94.361196 
2816.000000	94.358388 
2815.000000	94.358731 
2814.000000	94.360808 
2813.000000	94.362776 
2812.000000	94.363448 
2811.000000	94.362847 
2810.000000	94.362231 
2809.000000	94.363051 
2808.000000	94.365355 
2807.000000	94.367577 
2806.000000	94.368229 
2805.000000	94.367445 
2804.000000	94.366510 
2803.000000	94.366413 
2802.000000	94.367316 
2801.000000	94.368928 
2800.000000	94.370691 
2799.000000	94.371807 
2798.000000	94.371708 
2797.000000	94.370604 
2796.000000	94.369365 
2795.000000	94.368821 
2794.000000	94.369280 
2793.000000	94.370588 
2792.000000	94.372312 
2791.000000	94.373899 
2790.000000	94.374951 
2789.000000	94.375496 
2788.000000	94.375954 
2787.000000	94.376789 
2786.000000	94.378197 
2785.000000	94.379998 
2784.000000	94.381616 
2783.000000	94.382241 
2782.000000	94.381278 
2781.000000	94.378778 
2780.000000	94.375466 
2779.000000	94.372403 
2778.000000	94.370613 
2777.000000	94.370762 
2776.000000	94.372773 
2775.000000	94.375749 
2774.000000	94.378647 
2773.000000	94.381000 
2772.000000	94.382930 
2771.000000	94.384786 
2770.000000	94.386861 
2769.000000	94.389148 
2768.000000	94.391102 
2767.000000	94.391866 
2766.000000	94.391121 
2765.000000	94.389668 
2764.000000	94.388944 
2763.000000	94.389883 
2762.000000	94.392323 
2761.000000	94.395286 
2760.000000	94.397639 
2759.000000	94.398769 
2758.000000	94.398975 
2757.000000	94.399228 
2756.000000	94.400363 
2755.000000	94.402469 
2754.000000	94.405087 
2753.000000	94.407726 
2752.000000	94.410004 
2751.000000	94.411553 
2750.000000	94.412102 
2749.000000	94.411649 
2748.000000	94.410379 
2747.000000	94.408594 
2746.000000	94.406890 
2745.000000	94.406092 
2744.000000	94.406627 
2743.000000	94.408125 
2742.000000	94.409888 
2741.000000	94.411614 
2740.000000	94.413310 
2739.000000	94.414632 
2738.000000	94.414801 
2737.000000	94.413387 
2736.000000	94.410928 
2735.000000	94.408722 
2734.000000	94.407970 
2733.000000	94.408995 
2732.000000	94.411087 
2731.000000	94.412981 
2730.000000	94.413703 
2729.000000	94.412980 
2728.000000	94.411004 
2727.000000	94.408254 
2726.000000	94.405683 
2725.000000	94.404472 
2724.000000	94.405035 
2723.000000	94.406363 
2722.000000	94.406881 
2721.000000	94.406221 
2720.000000	94.405696 
2719.000000	94.406717 
2718.000000	94.409081 
2717.000000	94.411104 
2716.000000	94.411426 
2715.000000	94.410428 
2714.000000	94.409843 
2713.000000	94.411030 
2712.000000	94.413498 
2711.000000	94.415093 
2710.000000	94.414011 
2709.000000	94.410704 
2708.000000	94.407606 
2707.000000	94.406882 
2706.000000	94.408802 
2705.000000	94.412286 
2704.000000	94.416184 
2703.000000	94.419547 
2702.000000	94.421355 
2701.000000	94.421142 
2700.000000	94.420132 
2699.000000	94.420902 
2698.000000	94.425125 
2697.000000	94.431581 
2696.000000	94.436818 
2695.000000	94.438315 
2694.000000	94.436833 
2693.000000	94.435301 
2692.000000	94.435457 
2691.000000	94.436375 
2690.000000	94.436546 
2689.000000	94.436283 
2688.000000	94.437076 
2687.000000	94.439367 
2686.000000	94.442367 
2685.000000	94.445780 
2684.000000	94.450270 
2683.000000	94.456115 
2682.000000	94.462579 
2681.000000	94.468647 
2680.000000	94.473117 
2679.000000	94.474119 
2678.000000	94.470456 
2677.000000	94.463870 
2676.000000	94.458098 
2675.000000	94.454344 
2674.000000	94.449174 
2673.000000	94.438447 
2672.000000	94.422509 
2671.000000	94.406285 
2670.000000	94.394737 
2669.000000	94.389487 
2668.000000	94.389351 
2667.000000	94.392415 
2666.000000	94.397313 
2665.000000	94.403587 
2664.000000	94.411285 
2663.000000	94.420072 
2662.000000	94.428837 
2661.000000	94.436420 
2660.000000	94.442208 
2659.000000	94.445376 
2658.000000	94.444158 
2657.000000	94.437091 
2656.000000	94.425096 
2655.000000	94.411508 
2654.000000	94.399648 
2653.000000	94.390727 
2652.000000	94.384002 
2651.000000	94.378116 
2650.000000	94.372257 
2649.000000	94.366924 
2648.000000	94.363993 
2647.000000	94.365455 
2646.000000	94.371601 
2645.000000	94.380600 
2644.000000	94.390187 
2643.000000	94.399570 
2642.000000	94.409436 
2641.000000	94.420526 
2640.000000	94.432750 
2639.000000	94.445489 
2638.000000	94.458114 
2637.000000	94.470033 
2636.000000	94.480470 
2635.000000	94.488240 
2634.000000	94.491684 
2633.000000	94.489306 
2632.000000	94.481339 
2631.000000	94.470858 
2630.000000	94.462411 
2629.000000	94.458710 
2628.000000	94.458979 
2627.000000	94.461008 
2626.000000	94.464087 
2625.000000	94.468864 
2624.000000	94.474730 
2623.000000	94.479139 
2622.000000	94.480424 
2621.000000	94.480168 
2620.000000	94.481494 
2619.000000	94.485300 
2618.000000	94.489252 
2617.000000	94.490490 
2616.000000	94.488312 
2615.000000	94.484097 
2614.000000	94.479775 
2613.000000	94.476952 
2612.000000	94.476643 
2611.000000	94.478555 
2610.000000	94.480513 
2609.000000	94.479758 
2608.000000	94.475698 
2607.000000	94.471051 
2606.000000	94.469452 
2605.000000	94.471851 
2604.000000	94.475889 
2603.000000	94.478648 
2602.000000	94.479472 
2601.000000	94.479647 
2600.000000	94.480076 
2599.000000	94.480276 
2598.000000	94.479608 
2597.000000	94.478439 
2596.000000	94.477551 
2595.000000	94.477093 
2594.000000	94.476747 
2593.000000	94.476474 
2592.000000	94.476468 
2591.000000	94.476608 
2590.000000	94.476479 
2589.000000	94.475918 
2588.000000	94.475246 
2587.000000	94.474901 
2586.000000	94.474959 
2585.000000	94.475077 
2584.000000	94.474834 
2583.000000	94.474156 
2582.000000	94.473478 
2581.000000	94.473396 
2580.000000	94.474025 
2579.000000	94.474809 
2578.000000	94.475074 
2577.000000	94.474625 
2576.000000	94.473680 
2575.000000	94.472466 
2574.000000	94.471159 
2573.000000	94.470095 
2572.000000	94.469586 
2571.000000	94.469557 
2570.000000	94.469703 
2569.000000	94.469899 
2568.000000	94.469984 
2567.000000	94.469278 
2566.000000	94.467028 
2565.000000	94.463504 
2564.000000	94.460076 
2563.000000	94.457929 
2562.000000	94.457318 
2561.000000	94.458199 
2560.000000	94.460759 
2559.000000	94.464639 
2558.000000	94.468383 
2557.000000	94.470504 
2556.000000	94.470822 
2555.000000	94.470283 
2554.000000	94.469809 
2553.000000	94.469636 
2552.000000	94.469522 
2551.000000	94.469001 
2550.000000	94.467596 
2549.000000	94.465360 
2548.000000	94.463203 
2547.000000	94.462211 
2546.000000	94.462653 
2545.000000	94.464030 
2544.000000	94.465917 
2543.000000	94.468153 
2542.000000	94.470165 
2541.000000	94.470937 
2540.000000	94.470114 
2539.000000	94.468653 
2538.000000	94.467791 
2537.000000	94.467610 
2536.000000	94.467335 
2535.000000	94.466824 
2534.000000	94.466851 
2533.000000	94.467728 
2532.000000	94.468590 
2531.000000	94.468693 
2530.000000	94.468866 
2529.000000	94.470657 
2528.000000	94.474293 
2527.000000	94.478288 
2526.000000	94.481150 
2525.000000	94.482734 
2524.000000	94.483538 
2523.000000	94.483628 
2522.000000	94.482889 
2521.000000	94.481784 
2520.000000	94.481063 
2519.000000	94.480864 
2518.000000	94.480766 
2517.000000	94.480648 
2516.000000	94.480914 
2515.000000	94.481914 
2514.000000	94.483659 
2513.000000	94.485981 
2512.000000	94.488427 
2511.000000	94.490147 
2510.000000	94.490567 
2509.000000	94.490187 
2508.000000	94.490119 
2507.000000	94.490770 
2506.000000	94.491617 
2505.000000	94.492287 
2504.000000	94.493084 
2503.000000	94.494271 
2502.000000	94.495464 
2501.000000	94.495916 
2500.000000	94.494953 
2499.000000	94.492207 
2498.000000	94.488238 
2497.000000	94.484887 
2496.000000	94.483919 
2495.000000	94.485192 
2494.000000	94.486903 
2493.000000	94.487957 
2492.000000	94.489149 
2491.000000	94.491396 
2490.000000	94.493896 
2489.000000	94.495053 
2488.000000	94.494491 
2487.000000	94.492997 
2486.000000	94.490869 
2485.000000	94.487571 
2484.000000	94.483105 
2483.000000	94.478786 
2482.000000	94.476258 
2481.000000	94.476257 
2480.000000	94.478514 
2479.000000	94.482288 
2478.000000	94.486749 
2477.000000	94.491080 
2476.000000	94.494466 
2475.000000	94.496144 
2474.000000	94.495713 
2473.000000	94.493564 
2472.000000	94.490751 
2471.000000	94.488156 
2470.000000	94.485954 
2469.000000	94.484098 
2468.000000	94.482931 
2467.000000	94.482942 
2466.000000	94.484275 
2465.000000	94.486848 
2464.000000	94.490586 
2463.000000	94.495061 
2462.000000	94.499139 
2461.000000	94.501612 
2460.000000	94.502216 
2459.000000	94.501612 
2458.000000	94.500462 
2457.000000	94.498869 
2456.000000	94.496708 
2455.000000	94.494155 
2454.000000	94.491863 
2453.000000	94.490706 
2452.000000	94.491174 
2451.000000	94.492879 
2450.000000	94.494765 
2449.000000	94.496039 
2448.000000	94.496903 
2447.000000	94.498218 
2446.000000	94.500583 
2445.000000	94.503778 
2444.000000	94.506846 
2443.000000	94.508609 
2442.000000	94.508367 
2441.000000	94.506380 
2440.000000	94.503702 
2439.000000	94.501424 
2438.000000	94.500045 
2437.000000	94.499489 
2436.000000	94.499439 
2435.000000	94.499567 
2434.000000	94.499642 
2433.000000	94.499550 
2432.000000	94.499228 
2431.000000	94.498699 
2430.000000	94.498268 
2429.000000	94.498418 
2428.000000	94.499262 
2427.000000	94.500273 
2426.000000	94.500853 
2425.000000	94.500961 
2424.000000	94.500856 
2423.000000	94.500435 
2422.000000	94.499368 
2421.000000	94.497855 
2420.000000	94.496729 
2419.000000	94.496644 
2418.000000	94.497583 
2417.000000	94.499116 
2416.000000	94.500692 
2415.000000	94.501633 
2414.000000	94.501305 
2413.000000	94.499887 
2412.000000	94.498721 
2411.000000	94.498998 
2410.000000	94.500530 
2409.000000	94.502027 
2408.000000	94.502470 
2407.000000	94.501769 
2406.000000	94.500467 
2405.000000	94.499263 
2404.000000	94.498640 
2403.000000	94.498499 
2402.000000	94.498248 
2401.000000	94.497462 
2400.000000	94.496287 
2399.000000	94.495175 
2398.000000	94.494490 
2397.000000	94.494472 
2396.000000	94.495136 
2395.000000	94.495886 
2394.000000	94.495572 
2393.000000	94.493718 
2392.000000	94.491089 
2391.000000	94.488369 
2390.000000	94.485566 
2389.000000	94.482827 
2388.000000	94.480669 
2387.000000	94.479268 
2386.000000	94.478110 
2385.000000	94.476601 
2384.000000	94.474695 
2383.000000	94.472665 
2382.000000	94.470676 
2381.000000	94.468880 
2380.000000	94.467524 
2379.000000	94.466589 
2378.000000	94.465598 
2377.000000	94.464124 
2376.000000	94.462101 
2375.000000	94.459431 
2374.000000	94.455798 
2373.000000	94.451252 
2372.000000	94.446640 
2371.000000	94.442990 
2370.000000	94.440642 
2369.000000	94.439134 
2368.000000	94.437517 
2367.000000	94.434894 
2366.000000	94.431160 
2365.000000	94.427212 
2364.000000	94.423961 
2363.000000	94.421013 
2362.000000	94.417141 
2361.000000	94.412197 
2360.000000	94.407052 
2359.000000	94.402576 
2358.000000	94.399094 
2357.000000	94.396724 
2356.000000	94.395391 
2355.000000	94.394637 
2354.000000	94.394779 
2353.000000	94.395516 
2352.000000	94.395232 
2351.000000	94.392725 
2350.000000	94.387951 
2349.000000	94.382135 
2348.000000	94.376893 
2347.000000	94.373846 
2346.000000	94.373183 
2345.000000	94.372888 
2344.000000	94.371252 
2343.000000	94.368669 
2342.000000	94.366964 
2341.000000	94.366457 
2340.000000	94.366186 
2339.000000	94.365393 
2338.000000	94.364457 
2337.000000	94.363923 
2336.000000	94.363324 
2335.000000	94.362107 
2334.000000	94.361321 
2333.000000	94.362179 
2332.000000	94.363993 
2331.000000	94.365295 
2330.000000	94.365286 
2329.000000	94.364636 
2328.000000	94.362708 
2327.000000	94.359386 
2326.000000	94.355893 
2325.000000	94.353712 
2324.000000	94.353965 
2323.000000	94.356130 
2322.000000	94.360028 
2321.000000	94.363927 
2320.000000	94.366250 
2319.000000	94.366984 
2318.000000	94.368012 
2317.000000	94.371136 
2316.000000	94.375937 
2315.000000	94.381187 
2314.000000	94.385532 
2313.000000	94.388650 
2312.000000	94.390422 
2311.000000	94.391838 
2310.000000	94.393938 
2309.000000	94.396708 
2308.000000	94.399347 
2307.000000	94.401988 
2306.000000	94.405811 
2305.000000	94.410397 
2304.000000	94.414310 
2303.000000	94.417228 
2302.000000	94.420468 
2301.000000	94.424397 
2300.000000	94.428050 
2299.000000	94.431512 
2298.000000	94.435539 
2297.000000	94.440094 
2296.000000	94.443375 
2295.000000	94.444840 
2294.000000	94.446075 
2293.000000	94.449115 
2292.000000	94.454235 
2291.000000	94.460299 
2290.000000	94.466126 
2289.000000	94.470359 
2288.000000	94.472100 
2287.000000	94.471871 
2286.000000	94.471730 
2285.000000	94.472583 
2284.000000	94.473353 
2283.000000	94.472685 
2282.000000	94.471227 
2281.000000	94.470924 
2280.000000	94.473105 
2279.000000	94.477739 
2278.000000	94.484311 
2277.000000	94.492231 
2276.000000	94.500008 
2275.000000	94.505142 
2274.000000	94.505517 
2273.000000	94.501422 
2272.000000	94.495598 
2271.000000	94.491251 
2270.000000	94.489645 
2269.000000	94.489989 
2268.000000	94.491019 
2267.000000	94.492049 
2266.000000	94.492699 
2265.000000	94.492744 
2264.000000	94.492540 
2263.000000	94.492924 
2262.000000	94.494045 
2261.000000	94.494912 
2260.000000	94.494924 
2259.000000	94.494879 
2258.000000	94.495859 
2257.000000	94.497422 
2256.000000	94.498344 
2255.000000	94.498558 
2254.000000	94.499171 
2253.000000	94.500751 
2252.000000	94.502700 
2251.000000	94.504550 
2250.000000	94.506571 
2249.000000	94.508963 
2248.000000	94.511210 
2247.000000	94.512616 
2246.000000	94.512763 
2245.000000	94.511526 
2244.000000	94.509338 
2243.000000	94.507465 
2242.000000	94.507175 
2241.000000	94.508387 
2240.000000	94.509836 
2239.000000	94.510723 
2238.000000	94.511518 
2237.000000	94.512821 
2236.000000	94.514356 
2235.000000	94.515580 
2234.000000	94.516557 
2233.000000	94.517605 
2232.000000	94.518619 
2231.000000	94.519252 
2230.000000	94.519477 
2229.000000	94.519530 
2228.000000	94.519553 
2227.000000	94.519635 
2226.000000	94.519960 
2225.000000	94.520676 
2224.000000	94.521732 
2223.000000	94.522866 
2222.000000	94.523615 
2221.000000	94.523465 
2220.000000	94.522309 
2219.000000	94.520785 
2218.000000	94.519827 
2217.000000	94.519729 
2216.000000	94.519997 
2215.000000	94.520049 
2214.000000	94.519740 
2213.000000	94.519212 
2212.000000	94.518704 
2211.000000	94.518647 
2210.000000	94.519429 
2209.000000	94.520761 
2208.000000	94.521677 
2207.000000	94.521558 
2206.000000	94.520816 
2205.000000	94.520267 
2204.000000	94.520171 
2203.000000	94.520310 
2202.000000	94.520563 
2201.000000	94.520845 
2200.000000	94.520723 
2199.000000	94.519726 
2198.000000	94.518026 
2197.000000	94.516424 
2196.000000	94.515649 
2195.000000	94.515864 
2194.000000	94.516702 
2193.000000	94.517509 
2192.000000	94.517765 
2191.000000	94.517519 
2190.000000	94.517279 
2189.000000	94.517308 
2188.000000	94.517264 
2187.000000	94.516764 
2186.000000	94.515979 
2185.000000	94.515336 
2184.000000	94.514947 
2183.000000	94.514749 
2182.000000	94.514876 
2181.000000	94.515338 
2180.000000	94.515627 
2179.000000	94.515273 
2178.000000	94.514645 
2177.000000	94.514622 
2176.000000	94.515523 
2175.000000	94.516870 
2174.000000	94.518095 
2173.000000	94.519066 
2172.000000	94.519908 
2171.000000	94.520802 
2170.000000	94.521925 
2169.000000	94.523089 
2168.000000	94.523589 
2167.000000	94.523010 
2166.000000	94.522205 
2165.000000	94.522811 
2164.000000	94.525568 
2163.000000	94.529506 
2162.000000	94.532822 
2161.000000	94.534391 
2160.000000	94.534353 
2159.000000	94.533715 
2158.000000	94.533487 
2157.000000	94.533866 
2156.000000	94.534223 
2155.000000	94.534049 
2154.000000	94.533690 
2153.000000	94.533838 
2152.000000	94.534542 
2151.000000	94.535243 
2150.000000	94.535563 
2149.000000	94.535490 
2148.000000	94.534955 
2147.000000	94.533972 
2146.000000	94.533178 
2145.000000	94.533459 
2144.000000	94.534931 
2143.000000	94.537023 
2142.000000	94.539555 
2141.000000	94.542739 
2140.000000	94.545854 
2139.000000	94.547217 
2138.000000	94.546283 
2137.000000	94.544927 
2136.000000	94.545538 
2135.000000	94.548060 
2134.000000	94.550073 
2133.000000	94.549670 
2132.000000	94.547108 
2131.000000	94.543758 
2130.000000	94.540440 
2129.000000	94.537202 
2128.000000	94.534098 
2127.000000	94.531597 
2126.000000	94.530331 
2125.000000	94.530640 
2124.000000	94.532091 
2123.000000	94.533353 
2122.000000	94.532982 
2121.000000	94.530697 
2120.000000	94.527720 
2119.000000	94.525718 
2118.000000	94.525530 
2117.000000	94.526925 
2116.000000	94.529075 
2115.000000	94.530873 
2114.000000	94.531200 
2113.000000	94.529532 
2112.000000	94.526456 
2111.000000	94.523348 
2110.000000	94.521433 
2109.000000	94.521217 
2108.000000	94.522586 
2107.000000	94.524996 
2106.000000	94.527564 
2105.000000	94.529454 
2104.000000	94.530516 
2103.000000	94.531438 
2102.000000	94.533113 
2101.000000	94.535837 
2100.000000	94.538959 
2099.000000	94.541202 
2098.000000	94.541539 
2097.000000	94.540098 
2096.000000	94.538233 
2095.000000	94.537353 
2094.000000	94.537517 
2093.000000	94.537540 
2092.000000	94.536443 
2091.000000	94.534436 
2090.000000	94.532560 
2089.000000	94.531878 
2088.000000	94.532984 
2087.000000	94.535637 
2086.000000	94.538462 
2085.000000	94.539692 
2084.000000	94.538735 
2083.000000	94.536664 
2082.000000	94.534945 
2081.000000	94.534039 
2080.000000	94.533593 
2079.000000	94.533243 
2078.000000	94.532548 
2077.000000	94.530745 
2076.000000	94.527571 
2075.000000	94.524067 
2074.000000	94.521739 
2073.000000	94.520964 
2072.000000	94.520958 
2071.000000	94.521045 
2070.000000	94.521154 
2069.000000	94.521287 
2068.000000	94.521478 
2067.000000	94.522249 
2066.000000	94.524109 
2065.000000	94.526412 
2064.000000	94.527609 
2063.000000	94.527048 
2062.000000	94.525779 
2061.000000	94.525221 
2060.000000	94.525548 
2059.000000	94.525755 
2058.000000	94.524771 
2057.000000	94.522138 
2056.000000	94.518211 
2055.000000	94.514285 
2054.000000	94.512100 
2053.000000	94.512574 
2052.000000	94.514979 
2051.000000	94.517559 
2050.000000	94.519132 
2049.000000	94.520010 
2048.000000	94.521406 
2047.000000	94.523994 
2046.000000	94.527084 
2045.000000	94.529496 
2044.000000	94.531284 
2043.000000	94.533846 
2042.000000	94.537745 
2041.000000	94.541192 
2040.000000	94.541969 
2039.000000	94.540390 
2038.000000	94.538942 
2037.000000	94.538950 
2036.000000	94.538967 
2035.000000	94.537097 
2034.000000	94.533619 
2033.000000	94.530519 
2032.000000	94.529318 
2031.000000	94.530290 
2030.000000	94.533047 
2029.000000	94.536788 
2028.000000	94.540397 
2027.000000	94.543131 
2026.000000	94.544930 
2025.000000	94.545711 
2024.000000	94.545045 
2023.000000	94.543234 
2022.000000	94.541835 
2021.000000	94.542035 
2020.000000	94.542940 
2019.000000	94.542566 
2018.000000	94.540197 
2017.000000	94.536806 
2016.000000	94.533457 
2015.000000	94.530413 
2014.000000	94.527763 
2013.000000	94.525659 
2012.000000	94.523809 
2011.000000	94.521786 
2010.000000	94.519984 
2009.000000	94.519181 
2008.000000	94.519047 
2007.000000	94.518310 
2006.000000	94.516833 
2005.000000	94.516357 
2004.000000	94.518165 
2003.000000	94.520858 
2002.000000	94.521280 
2001.000000	94.517557 
2000.000000	94.510760 
1999.000000	94.503804 
1998.000000	94.499153 
1997.000000	94.497544 
1996.000000	94.498470 
1995.000000	94.501270 
1994.000000	94.505455 
1993.000000	94.510078 
1992.000000	94.513551 
1991.000000	94.514919 
1990.000000	94.514992 
1989.000000	94.515347 
1988.000000	94.516289 
1987.000000	94.516560 
1986.000000	94.515207 
1985.000000	94.513023 
1984.000000	94.511564 
1983.000000	94.511353 
1982.000000	94.511604 
1981.000000	94.511542 
1980.000000	94.511493 
1979.000000	94.512582 
1978.000000	94.515676 
1977.000000	94.520459 
1976.000000	94.525461 
1975.000000	94.529176 
1974.000000	94.531458 
1973.000000	94.533657 
1972.000000	94.537129 
1971.000000	94.541873 
1970.000000	94.546949 
1969.000000	94.551677 
1968.000000	94.555563 
1967.000000	94.557445 
1966.000000	94.556156 
1965.000000	94.552353 
1964.000000	94.548561 
1963.000000	94.546868 
1962.000000	94.547276 
1961.000000	94.548685 
1960.000000	94.550607 
1959.000000	94.553241 
1958.000000	94.556720 
1957.000000	94.561182 
1956.000000	94.566831 
1955.000000	94.572732 
1954.000000	94.576475 
1953.000000	94.576385 
1952.000000	94.573485 
1951.000000	94.570337 
1950.000000	94.568121 
1949.000000	94.566122 
1948.000000	94.563813 
1947.000000	94.561815 
1946.000000	94.560577 
1945.000000	94.559511 
1944.000000	94.558157 
1943.000000	94.557161 
1942.000000	94.557225 
1941.000000	94.557803 
1940.000000	94.557836 
1939.000000	94.557052 
1938.000000	94.555655 
1937.000000	94.553572 
1936.000000	94.550845 
1935.000000	94.548060 
1934.000000	94.545730 
1933.000000	94.543543 
1932.000000	94.540858 
1931.000000	94.537902 
1930.000000	94.535703 
1929.000000	94.535106 
1928.000000	94.536009 
1927.000000	94.537648 
1926.000000	94.539074 
1925.000000	94.539147 
1924.000000	94.537108 
1923.000000	94.533401 
1922.000000	94.529669 
1921.000000	94.527326 
1920.000000	94.526555 
1919.000000	94.526856 
1918.000000	94.527784 
1917.000000	94.528961 
1916.000000	94.529899 
1915.000000	94.530317 
1914.000000	94.530418 
1913.000000	94.530603 
1912.000000	94.531165 
1911.000000	94.532164 
1910.000000	94.533191 
1909.000000	94.533500 
1908.000000	94.532534 
1907.000000	94.530421 
1906.000000	94.527725 
1905.000000	94.524790 
1904.000000	94.521883 
1903.000000	94.519668 
1902.000000	94.518910 
1901.000000	94.519583 
1900.000000	94.520585 
1899.000000	94.520722 
1898.000000	94.519807 
1897.000000	94.518571 
1896.000000	94.517883 
1895.000000	94.518018 
1894.000000	94.518419 
1893.000000	94.518078 
1892.000000	94.516497 
1891.000000	94.514402 
1890.000000	94.513222 
1889.000000	94.513538 
1888.000000	94.514395 
1887.000000	94.514663 
1886.000000	94.514380 
1885.000000	94.514150 
1884.000000	94.514112 
1883.000000	94.514130 
1882.000000	94.514487 
1881.000000	94.515614 
1880.000000	94.517182 
1879.000000	94.518090 
1878.000000	94.517477 
1877.000000	94.515449 
1876.000000	94.512961 
1875.000000	94.511196 
1874.000000	94.510917 
1873.000000	94.512177 
1872.000000	94.514446 
1871.000000	94.517073 
1870.000000	94.519649 
1869.000000	94.521962 
1868.000000	94.523786 
1867.000000	94.524946 
1866.000000	94.525471 
1865.000000	94.525415 
1864.000000	94.524816 
1863.000000	94.524094 
1862.000000	94.524208 
1861.000000	94.525944 
1860.000000	94.529005 
1859.000000	94.532111 
1858.000000	94.534181 
1857.000000	94.535185 
1856.000000	94.535921 
1855.000000	94.537352 
1854.000000	94.539964 
1853.000000	94.543578 
1852.000000	94.547462 
1851.000000	94.550579 
1850.000000	94.552074 
1849.000000	94.551764 
1848.000000	94.550588 
1847.000000	94.550116 
1846.000000	94.551209 
1845.000000	94.553233 
1844.000000	94.554766 
1843.000000	94.555206 
1842.000000	94.554873 
1841.000000	94.554225 
1840.000000	94.553988 
1839.000000	94.555203 
1838.000000	94.558204 
1837.000000	94.561671 
1836.000000	94.563863 
1835.000000	94.564771 
1834.000000	94.565957 
1833.000000	94.568413 
1832.000000	94.571452 
1831.000000	94.573540 
1830.000000	94.573699 
1829.000000	94.572044 
1828.000000	94.569512 
1827.000000	94.567670 
1826.000000	94.568372 
1825.000000	94.572076 
1824.000000	94.576531 
1823.000000	94.578701 
1822.000000	94.577691 
1821.000000	94.574727 
1820.000000	94.571345 
1819.000000	94.568406 
1818.000000	94.566358 
1817.000000	94.565355 
1816.000000	94.565043 
1815.000000	94.564767 
1814.000000	94.564340 
1813.000000	94.563927 
1812.000000	94.563199 
1811.000000	94.561707 
1810.000000	94.559920 
1809.000000	94.558674 
1808.000000	94.557676 
1807.000000	94.556346 
1806.000000	94.555654 
1805.000000	94.556856 
1804.000000	94.559050 
1803.000000	94.559625 
1802.000000	94.557664 
1801.000000	94.555470 
1800.000000	94.555387 
1799.000000	94.557071 
1798.000000	94.558934 
1797.000000	94.560182 
1796.000000	94.560639 
1795.000000	94.560581 
1794.000000	94.561240 
1793.000000	94.564230 
1792.000000	94.569254 
1791.000000	94.573672 
1790.000000	94.575655 
1789.000000	94.575689 
1788.000000	94.574898 
1787.000000	94.574169 
1786.000000	94.574562 
1785.000000	94.576700 
1784.000000	94.579853 
1783.000000	94.582581 
1782.000000	94.584600 
1781.000000	94.586721 
1780.000000	94.588974 
1779.000000	94.590653 
1778.000000	94.591477 
1777.000000	94.591880 
1776.000000	94.592292 
1775.000000	94.593083 
1774.000000	94.594828 
1773.000000	94.597313 
1772.000000	94.598812 
1771.000000	94.597780 
1770.000000	94.595036 
1769.000000	94.593451 
1768.000000	94.595167 
1767.000000	94.599280 
1766.000000	94.603203 
1765.000000	94.605847 
1764.000000	94.607928 
1763.000000	94.609756 
1762.000000	94.610417 
1761.000000	94.609583 
1760.000000	94.608519 
1759.000000	94.608681 
1758.000000	94.610070 
1757.000000	94.611155 
1756.000000	94.610271 
1755.000000	94.607279 
1754.000000	94.603604 
1753.000000	94.601085 
1752.000000	94.600555 
1751.000000	94.601179 
1750.000000	94.601284 
1749.000000	94.600207 
1748.000000	94.598814 
1747.000000	94.597738 
1746.000000	94.596599 
1745.000000	94.595014 
1744.000000	94.593277 
1743.000000	94.591882 
1742.000000	94.590927 
1741.000000	94.590426 
1740.000000	94.590453 
1739.000000	94.590297 
1738.000000	94.588581 
1737.000000	94.585210 
1736.000000	94.581673 
1735.000000	94.579392 
1734.000000	94.578253 
1733.000000	94.577185 
1732.000000	94.575817 
1731.000000	94.574940 
1730.000000	94.574890 
1729.000000	94.574380 
1728.000000	94.572239 
1727.000000	94.568757 
1726.000000	94.565212 
1725.000000	94.562332 
1724.000000	94.559964 
1723.000000	94.557850 
1722.000000	94.555956 
1721.000000	94.554348 
1720.000000	94.553009 
1719.000000	94.551414 
1718.000000	94.548490 
1717.000000	94.544200 
1716.000000	94.539597 
1715.000000	94.535495 
1714.000000	94.532563 
1713.000000	94.530589 
1712.000000	94.528281 
1711.000000	94.524713 
1710.000000	94.520107 
1709.000000	94.515558 
1708.000000	94.511958 
1707.000000	94.509269 
1706.000000	94.506804 
1705.000000	94.503827 
1704.000000	94.499914 
1703.000000	94.495686 
1702.000000	94.492888 
1701.000000	94.492125 
1700.000000	94.490254 
1699.000000	94.484025 
1698.000000	94.474808 
1697.000000	94.466764 
1696.000000	94.462078 
1695.000000	94.459016 
1694.000000	94.455187 
1693.000000	94.450502 
1692.000000	94.445815 
1691.000000	94.441269 
1690.000000	94.436545 
1689.000000	94.431859 
1688.000000	94.427347 
1687.000000	94.422416 
1686.000000	94.416599 
1685.000000	94.409612 
1684.000000	94.402705 
1683.000000	94.397180 
1682.000000	94.391257 
1681.000000	94.384593 
1680.000000	94.380013 
1679.000000	94.378483 
1678.000000	94.378428 
1677.000000	94.377258 
1676.000000	94.373979 
1675.000000	94.369659 
1674.000000	94.365815 
1673.000000	94.362422 
1672.000000	94.359156 
1671.000000	94.356652 
1670.000000	94.355549 
1669.000000	94.355307 
1668.000000	94.353995 
1667.000000	94.350299 
1666.000000	94.344754 
1665.000000	94.338913 
1664.000000	94.334079 
1663.000000	94.330435 
1662.000000	94.327088 
1661.000000	94.322929 
1660.000000	94.318074 
1659.000000	94.314363 
1658.000000	94.313556 
1657.000000	94.315275 
1656.000000	94.318409 
1655.000000	94.322981 
1654.000000	94.326461 
1653.000000	94.323618 
1652.000000	94.316453 
1651.000000	94.308975 
1650.000000	94.302670 
1649.000000	94.299387 
1648.000000	94.295826 
1647.000000	94.288171 
1646.000000	94.277951 
1645.000000	94.271443 
1644.000000	94.270434 
1643.000000	94.273049 
1642.000000	94.275570 
1641.000000	94.274918 
1640.000000	94.270038 
1639.000000	94.262975 
1638.000000	94.257166 
1637.000000	94.253665 
1636.000000	94.251046 
1635.000000	94.250795 
1634.000000	94.254226 
1633.000000	94.257737 
1632.000000	94.258939 
1631.000000	94.258555 
1630.000000	94.259097 
1629.000000	94.261801 
1628.000000	94.264808 
1627.000000	94.265665 
1626.000000	94.264477 
1625.000000	94.263244 
1624.000000	94.262955 
1623.000000	94.263757 
1622.000000	94.265515 
1621.000000	94.266731 
1620.000000	94.266127 
1619.000000	94.265088 
1618.000000	94.267135 
1617.000000	94.274893 
1616.000000	94.286889 
1615.000000	94.298971 
1614.000000	94.308363 
1613.000000	94.314796 
1612.000000	94.318582 
1611.000000	94.320450 
1610.000000	94.322517 
1609.000000	94.326572 
1608.000000	94.332272 
1607.000000	94.338571 
1606.000000	94.345279 
1605.000000	94.352946 
1604.000000	94.361706 
1603.000000	94.370998 
1602.000000	94.379402 
1601.000000	94.385016 
1600.000000	94.387446 
1599.000000	94.389123 
1598.000000	94.393990 
1597.000000	94.404153 
1596.000000	94.417546 
1595.000000	94.429037 
1594.000000	94.434543 
1593.000000	94.434304 
1592.000000	94.432308 
1591.000000	94.432629 
1590.000000	94.435930 
1589.000000	94.439750 
1588.000000	94.442023 
1587.000000	94.443202 
1586.000000	94.444157 
1585.000000	94.444457 
1584.000000	94.443911 
1583.000000	94.444004 
1582.000000	94.446409 
1581.000000	94.450350 
1580.000000	94.453826 
1579.000000	94.456290 
1578.000000	94.458311 
1577.000000	94.458458 
1576.000000	94.455465 
1575.000000	94.452894 
1574.000000	94.453470 
1573.000000	94.455720 
1572.000000	94.458248 
1571.000000	94.460472 
1570.000000	94.461987 
1569.000000	94.462604 
1568.000000	94.462755 
1567.000000	94.463310 
1566.000000	94.465013 
1565.000000	94.467191 
1564.000000	94.468831 
1563.000000	94.469946 
1562.000000	94.471124 
1561.000000	94.472441 
1560.000000	94.470309 
1559.000000	94.466070 
1558.000000	94.468680 
1557.000000	94.472007 
1556.000000	94.468056 
1555.000000	94.461985 
1554.000000	94.458670 
1553.000000	94.460636 
1552.000000	94.465531 
1551.000000	94.471322 
1550.000000	94.477103 
1549.000000	94.482662 
1548.000000	94.487760 
1547.000000	94.492144 
1546.000000	94.495828 
1545.000000	94.498980 
1544.000000	94.501908 
1543.000000	94.504761 
1542.000000	94.507013 
1541.000000	94.507667 
1540.000000	94.507749 
1539.000000	94.510447 
1538.000000	94.515370 
1537.000000	94.519412 
1536.000000	94.521934 
1535.000000	94.523509 
1534.000000	94.525194 
1533.000000	94.527917 
1532.000000	94.531234 
1531.000000	94.534006 
1530.000000	94.536945 
1529.000000	94.541227 
1528.000000	94.546385 
1527.000000	94.550751 
1526.000000	94.553280 
1525.000000	94.554558 
1524.000000	94.555571 
1523.000000	94.556823 
1522.000000	94.558428 
1521.000000	94.560552 
1520.000000	94.563104 
1519.000000	94.565947 
1518.000000	94.569809 
1517.000000	94.574453 
1516.000000	94.577696 
1515.000000	94.578207 
1514.000000	94.577441 
1513.000000	94.577977 
1512.000000	94.580527 
1511.000000	94.583685 
1510.000000	94.586173 
1509.000000	94.588095 
1508.000000	94.588838 
1507.000000	94.586619 
1506.000000	94.584008 
1505.000000	94.584549 
1504.000000	94.586592 
1503.000000	94.588354 
1502.000000	94.589311 
1501.000000	94.589843 
1500.000000	94.590503 
1499.000000	94.591320 
1498.000000	94.591868 
1497.000000	94.592259 
1496.000000	94.592951 
1495.000000	94.593393 
1494.000000	94.593085 
1493.000000	94.592700 
1492.000000	94.592822 
1491.000000	94.593051 
1490.000000	94.593054 
1489.000000	94.593945 
1488.000000	94.596348 
1487.000000	94.599429 
1486.000000	94.602660 
1485.000000	94.605741 
1484.000000	94.607924 
1483.000000	94.608695 
1482.000000	94.608700 
1481.000000	94.609042 
1480.000000	94.609541 
1479.000000	94.608694 
1478.000000	94.605892 
1477.000000	94.602577 
1476.000000	94.600819 
1475.000000	94.601037 
1474.000000	94.602172 
1473.000000	94.603639 
1472.000000	94.605776 
1471.000000	94.608242 
1470.000000	94.610114 
1469.000000	94.611197 
1468.000000	94.611542 
1467.000000	94.610920 
1466.000000	94.609651 
1465.000000	94.609482 
1464.000000	94.611476 
1463.000000	94.613965 
1462.000000	94.615045 
1461.000000	94.614804 
1460.000000	94.613823 
1459.000000	94.611928 
1458.000000	94.608667 
1457.000000	94.606337 
1456.000000	94.607849 
1455.000000	94.609713 
1454.000000	94.608571 
1453.000000	94.607047 
1452.000000	94.607790 
1451.000000	94.610080 
1450.000000	94.610938 
1449.000000	94.610011 
1448.000000	94.609988 
1447.000000	94.612033 
1446.000000	94.613795 
1445.000000	94.613247 
1444.000000	94.610083 
1443.000000	94.605215 
1442.000000	94.600149 
1441.000000	94.596297 
1440.000000	94.594224 
1439.000000	94.593529 
1438.000000	94.592989 
1437.000000	94.591398 
1436.000000	94.589236 
1435.000000	94.586674 
1434.000000	94.583436 
1433.000000	94.581228 
1432.000000	94.581131 
1431.000000	94.581253 
1430.000000	94.578715 
1429.000000	94.573323 
1428.000000	94.567844 
1427.000000	94.564233 
1426.000000	94.562329 
1425.000000	94.561433 
1424.000000	94.561595 
1423.000000	94.563489 
1422.000000	94.567322 
1421.000000	94.573092 
1420.000000	94.579911 
1419.000000	94.585030 
1418.000000	94.586891 
1417.000000	94.587850 
1416.000000	94.590818 
1415.000000	94.595837 
1414.000000	94.601168 
1413.000000	94.606104 
1412.000000	94.611120 
1411.000000	94.616100 
1410.000000	94.620301 
1409.000000	94.624187 
1408.000000	94.628791 
1407.000000	94.633158 
1406.000000	94.634916 
1405.000000	94.633802 
1404.000000	94.632670 
1403.000000	94.633783 
1402.000000	94.636229 
1401.000000	94.637766 
1400.000000	94.636751 
1399.000000	94.633507 
1398.000000	94.631113 
1397.000000	94.633440 
1396.000000	94.641726 
1395.000000	94.652036 
1394.000000	94.657569 
1393.000000	94.656226 
1392.000000	94.652233 
1391.000000	94.650246 
1390.000000	94.650836 
1389.000000	94.651857 
1388.000000	94.651859 
1387.000000	94.651562 
1386.000000	94.652035 
1385.000000	94.652896 
1384.000000	94.653201 
1383.000000	94.652781 
1382.000000	94.652276 
1381.000000	94.652532 
1380.000000	94.653947 
1379.000000	94.656196 
1378.000000	94.658411 
1377.000000	94.659539 
1376.000000	94.658806 
1375.000000	94.656280 
1374.000000	94.653216 
1373.000000	94.651112 
1372.000000	94.650248 
1371.000000	94.650036 
1370.000000	94.650260 
1369.000000	94.651077 
1368.000000	94.652160 
1367.000000	94.652409 
1366.000000	94.650788 
1365.000000	94.647242 
1364.000000	94.642622 
1363.000000	94.638450 
1362.000000	94.636671 
1361.000000	94.638202 
1360.000000	94.641522 
1359.000000	94.643523 
1358.000000	94.642115 
1357.000000	94.638065 
1356.000000	94.634282 
1355.000000	94.633067 
1354.000000	94.634435 
1353.000000	94.636857 
1352.000000	94.638767 
1351.000000	94.639393 
1350.000000	94.639008 
1349.000000	94.638658 
1348.000000	94.639236 
1347.000000	94.640553 
1346.000000	94.641775 
1345.000000	94.642947 
1344.000000	94.645337 
1343.000000	94.649815 
1342.000000	94.655316 
1341.000000	94.659245 
1340.000000	94.659522 
1339.000000	94.656293 
1338.000000	94.651800 
1337.000000	94.648668 
1336.000000	94.648205 
1335.000000	94.649868 
1334.000000	94.652010 
1333.000000	94.653540 
1332.000000	94.654844 
1331.000000	94.656751 
1330.000000	94.658748 
1329.000000	94.658990 
1328.000000	94.656347 
1327.000000	94.651992 
1326.000000	94.648665 
1325.000000	94.648298 
1324.000000	94.650668 
1323.000000	94.653839 
1322.000000	94.655577 
1321.000000	94.654833 
1320.000000	94.652300 
1319.000000	94.649728 
1318.000000	94.648429 
1317.000000	94.648390 
1316.000000	94.648687 
1315.000000	94.648306 
1314.000000	94.646633 
1313.000000	94.643675 
1312.000000	94.640086 
1311.000000	94.636769 
1310.000000	94.634250 
1309.000000	94.632416 
1308.000000	94.630781 
1307.000000	94.628971 
1306.000000	94.627137 
1305.000000	94.625995 
1304.000000	94.626326 
1303.000000	94.628176 
1302.000000	94.630687 
1301.000000	94.632891 
1300.000000	94.634407 
1299.000000	94.635158 
1298.000000	94.634997 
1297.000000	94.634071 
1296.000000	94.632974 
1295.000000	94.631966 
1294.000000	94.630584 
1293.000000	94.628710 
1292.000000	94.627320 
1291.000000	94.627221 
1290.000000	94.627653 
1289.000000	94.627269 
1288.000000	94.625973 
1287.000000	94.624509 
1286.000000	94.622799 
1285.000000	94.620261 
1284.000000	94.617505 
1283.000000	94.615895 
1282.000000	94.615336 
1281.000000	94.614242 
1280.000000	94.612435 
1279.000000	94.612638 
1278.000000	94.617807 
1277.000000	94.627616 
1276.000000	94.638373 
1275.000000	94.646219 
1274.000000	94.649891 
1273.000000	94.650317 
1272.000000	94.648080 
1271.000000	94.642329 
1270.000000	94.633316 
1269.000000	94.625505 
1268.000000	94.625649 
1267.000000	94.636031 
1266.000000	94.650836 
1265.000000	94.661500 
1264.000000	94.664819 
1263.000000	94.663555 
1262.000000	94.660817 
1261.000000	94.657468 
1260.000000	94.654727 
1259.000000	94.654784 
1258.000000	94.657012 
1257.000000	94.657129 
1256.000000	94.652369 
1255.000000	94.645022 
1254.000000	94.638800 
1253.000000	94.633646 
1252.000000	94.626590 
1251.000000	94.616371 
1250.000000	94.604586 
1249.000000	94.592951 
1248.000000	94.581910 
1247.000000	94.571986 
1246.000000	94.564558 
1245.000000	94.560645 
1244.000000	94.559290 
1243.000000	94.557174 
1242.000000	94.550445 
1241.000000	94.538353 
1240.000000	94.525091 
1239.000000	94.516194 
1238.000000	94.512320 
1237.000000	94.508398 
1236.000000	94.499932 
1235.000000	94.488269 
1234.000000	94.478237 
1233.000000	94.472080 
1232.000000	94.467645 
1231.000000	94.461677 
1230.000000	94.452947 
1229.000000	94.442204 
1228.000000	94.430242 
1227.000000	94.416533 
1226.000000	94.399722 
1225.000000	94.379405 
1224.000000	94.356448 
1223.000000	94.330533 
1222.000000	94.298785 
1221.000000	94.259408 
1220.000000	94.215931 
1219.000000	94.174430 
1218.000000	94.136112 
1217.000000	94.096655 
1216.000000	94.054323 
1215.000000	94.014040 
1214.000000	93.979886 
1213.000000	93.946927 
1212.000000	93.905557 
1211.000000	93.852949 
1210.000000	93.796390 
1209.000000	93.745173 
1208.000000	93.701716 
1207.000000	93.660666 
1206.000000	93.614640 
1205.000000	93.560946 
1204.000000	93.503825 
1203.000000	93.449750 
1202.000000	93.400061 
1201.000000	93.349807 
1200.000000	93.294903 
1199.000000	93.238166 
1198.000000	93.186160 
1197.000000	93.141523 
1196.000000	93.100449 
1195.000000	93.056575 
1194.000000	93.006005 
1193.000000	92.950057 
1192.000000	92.894815 
1191.000000	92.846730 
1190.000000	92.806712 
1189.000000	92.769127 
1188.000000	92.727576 
1187.000000	92.680662 
1186.000000	92.631562 
1185.000000	92.583699 
1184.000000	92.538009 
1183.000000	92.492874 
1182.000000	92.445329 
1181.000000	92.393464 
1180.000000	92.338644 
1179.000000	92.284175 
1178.000000	92.230930 
1177.000000	92.175486 
1176.000000	92.113398 
1175.000000	92.043581 
1174.000000	91.969799 
1173.000000	91.899067 
1172.000000	91.837497 
1171.000000	91.784680 
1170.000000	91.732077 
1169.000000	91.670187 
1168.000000	91.598077 
1167.000000	91.523881 
1166.000000	91.457390 
1165.000000	91.406182 
1164.000000	91.377502 
1163.000000	91.376792 
1162.000000	91.401555 
1161.000000	91.440571 
1160.000000	91.480969 
1159.000000	91.513301 
1158.000000	91.530469 
1157.000000	91.527544 
1156.000000	91.504587 
1155.000000	91.466176 
1154.000000	91.417228 
1153.000000	91.362080 
1152.000000	91.306473 
1151.000000	91.254625 
1150.000000	91.203900 
1149.000000	91.148509 
1148.000000	91.089152 
1147.000000	91.032342 
1146.000000	90.979193 
1145.000000	90.923010 
1144.000000	90.860626 
1143.000000	90.797696 
1142.000000	90.738466 
1141.000000	90.678011 
1140.000000	90.610195 
1139.000000	90.536724 
1138.000000	90.462730 
1137.000000	90.389390 
1136.000000	90.316850 
1135.000000	90.248598 
1134.000000	90.186027 
1133.000000	90.123114 
1132.000000	90.053117 
1131.000000	89.977316 
1130.000000	89.902027 
1129.000000	89.830484 
1128.000000	89.762201 
1127.000000	89.695861 
1126.000000	89.627815 
1125.000000	89.552406 
1124.000000	89.469307 
1123.000000	89.386448 
1122.000000	89.310490 
1121.000000	89.239068 
1120.000000	89.167967 
1119.000000	89.100362 
1118.000000	89.041382 
1117.000000	88.987373 
1116.000000	88.928219 
1115.000000	88.858841 
1114.000000	88.782970 
1113.000000	88.707589 
1112.000000	88.638702 
1111.000000	88.580048 
1110.000000	88.530387 
1109.000000	88.483197 
1108.000000	88.432374 
1107.000000	88.376189 
1106.000000	88.314504 
1105.000000	88.247427 
1104.000000	88.179814 
1103.000000	88.121006 
1102.000000	88.074458 
1101.000000	88.032178 
1100.000000	87.983980 
1099.000000	87.927746 
1098.000000	87.867271 
1097.000000	87.804821 
1096.000000	87.742472 
1095.000000	87.686431 
1094.000000	87.643155 
1093.000000	87.612436 
1092.000000	87.588446 
1091.000000	87.565953 
1090.000000	87.543230 
1089.000000	87.521587 
1088.000000	87.503911 
1087.000000	87.490462 
1086.000000	87.475216 
1085.000000	87.451067 
1084.000000	87.419738 
1083.000000	87.391056 
1082.000000	87.371002 
1081.000000	87.356500 
1080.000000	87.343454 
1079.000000	87.332251 
1078.000000	87.322315 
1077.000000	87.308911 
1076.000000	87.289640 
1075.000000	87.267174 
1074.000000	87.240708 
1073.000000	87.201187 
1072.000000	87.141178 
1071.000000	87.065292 
1070.000000	86.985911 
1069.000000	86.911041 
1068.000000	86.838565 
1067.000000	86.757999 
1066.000000	86.655656 
1065.000000	86.524257 
1064.000000	86.371933 
1063.000000	86.218490 
1062.000000	86.080117 
1061.000000	85.960999 
1060.000000	85.858895 
1059.000000	85.769386 
1058.000000	85.682130 
1057.000000	85.583136 
1056.000000	85.467074 
1055.000000	85.341796 
1054.000000	85.217394 
1053.000000	85.097138 
1052.000000	84.981716 
1051.000000	84.872961 
1050.000000	84.767751 
1049.000000	84.657163 
1048.000000	84.537547 
1047.000000	84.414254 
1046.000000	84.290914 
1045.000000	84.164714 
1044.000000	84.035464 
1043.000000	83.909011 
1042.000000	83.787112 
1041.000000	83.663314 
1040.000000	83.534180 
1039.000000	83.406178 
1038.000000	83.286632 
1037.000000	83.176728 
1036.000000	83.077876 
1035.000000	82.994539 
1034.000000	82.924212 
1033.000000	82.854532 
1032.000000	82.778794 
1031.000000	82.707112 
1030.000000	82.654317 
1029.000000	82.622663 
1028.000000	82.602661 
1027.000000	82.585370 
1026.000000	82.567889 
1025.000000	82.550854 
1024.000000	82.536095 
1023.000000	82.524934 
1022.000000	82.516388 
1021.000000	82.509012 
1020.000000	82.503682 
1019.000000	82.500526 
1018.000000	82.495444 
1017.000000	82.485721 
1016.000000	82.476039 
1015.000000	82.470802 
1014.000000	82.463298 
1013.000000	82.442453 
1012.000000	82.409110 
1011.000000	82.375560 
1010.000000	82.350131 
1009.000000	82.332918 
1008.000000	82.325161 
1007.000000	82.329665 
1006.000000	82.340725 
1005.000000	82.346266 
1004.000000	82.343205 
1003.000000	82.340764 
1002.000000	82.347319 
1001.000000	82.364352 
1000.000000	82.393225 
999.000000	 82.434985 
998.000000	 82.481640 
997.000000	 82.520750 
996.000000	 82.552253 
995.000000	 82.588991 
994.000000	 82.637634 
993.000000	 82.691001 
992.000000	 82.742105 
991.000000	 82.793335 
990.000000	 82.847396 
989.000000	 82.901280 
988.000000	 82.954555 
987.000000	 83.012828 
986.000000	 83.077848 
985.000000	 83.144791 
984.000000	 83.214294 
983.000000	 83.296035 
982.000000	 83.394049 
981.000000	 83.498581 
980.000000	 83.599727 
979.000000	 83.701199 
978.000000	 83.813726 
977.000000	 83.941399 
976.000000	 84.079749 
975.000000	 84.220780 
974.000000	 84.355724 
973.000000	 84.479978 
972.000000	 84.600327 
971.000000	 84.731584 
970.000000	 84.881589 
969.000000	 85.043737 
968.000000	 85.206291 
967.000000	 85.363141 
966.000000	 85.513493 
965.000000	 85.658068 
964.000000	 85.799249 
963.000000	 85.939472 
962.000000	 86.076770 
961.000000	 86.207380 
960.000000	 86.334421 
959.000000	 86.467100 
958.000000	 86.608344 
957.000000	 86.749458 
956.000000	 86.880082 
955.000000	 86.997155 
954.000000	 87.101321 
953.000000	 87.191733 
952.000000	 87.269291 
951.000000	 87.339600 
950.000000	 87.407532 
949.000000	 87.472893 
948.000000	 87.535745 
947.000000	 87.601263 
946.000000	 87.673886 
945.000000	 87.749785 
944.000000	 87.820038 
943.000000	 87.879095 
942.000000	 87.927138 
941.000000	 87.967508 
940.000000	 88.005426 
939.000000	 88.046219 
938.000000	 88.090731 
937.000000	 88.134395 
936.000000	 88.173776 
935.000000	 88.211562 
934.000000	 88.252353 
933.000000	 88.296369 
932.000000	 88.340357 
931.000000	 88.382042 
930.000000	 88.420487 
929.000000	 88.454658 
928.000000	 88.485337 
927.000000	 88.517109 
926.000000	 88.555331 
925.000000	 88.601059 
924.000000	 88.649352 
923.000000	 88.691063 
922.000000	 88.717558 
921.000000	 88.728571 
920.000000	 88.736353 
919.000000	 88.756546 
918.000000	 88.791946 
917.000000	 88.829618 
916.000000	 88.857438 
915.000000	 88.879268 
914.000000	 88.909371 
913.000000	 88.956059 
912.000000	 89.016576 
911.000000	 89.085372 
910.000000	 89.161581 
909.000000	 89.248503 
908.000000	 89.349540 
907.000000	 89.464548 
906.000000	 89.587539 
905.000000	 89.709360 
904.000000	 89.825949 
903.000000	 89.942770 
902.000000	 90.067547 
901.000000	 90.199063 
900.000000	 90.326704 
899.000000	 90.441881 
898.000000	 90.546985 
897.000000	 90.651493 
896.000000	 90.762574 
895.000000	 90.881775 
894.000000	 91.007092 
893.000000	 91.132782 
892.000000	 91.248238 
891.000000	 91.343763 
890.000000	 91.420396 
889.000000	 91.489756 
888.000000	 91.560644 
887.000000	 91.629599 
886.000000	 91.689338 
885.000000	 91.743135 
884.000000	 91.804239 
883.000000	 91.881496 
882.000000	 91.971203 
881.000000	 92.063634 
880.000000	 92.151543 
879.000000	 92.230683 
878.000000	 92.299447 
877.000000	 92.363456 
876.000000	 92.435783 
875.000000	 92.525627 
874.000000	 92.627444 
873.000000	 92.726136 
872.000000	 92.812543 
871.000000	 92.889819 
870.000000	 92.965263 
869.000000	 93.040276 
868.000000	 93.109876 
867.000000	 93.169882 
866.000000	 93.223424 
865.000000	 93.281406 
864.000000	 93.355904 
863.000000	 93.449739 
862.000000	 93.550650 
861.000000	 93.637998 
860.000000	 93.698050 
859.000000	 93.733526 
858.000000	 93.758826 
857.000000	 93.786888 
856.000000	 93.821389 
855.000000	 93.859160 
854.000000	 93.895573 
853.000000	 93.927552 
852.000000	 93.956303 
851.000000	 93.989465 
850.000000	 94.036097 
849.000000	 94.094529 
848.000000	 94.147393 
847.000000	 94.174784 
846.000000	 94.173866 
845.000000	 94.162213 
844.000000	 94.160903 
843.000000	 94.176569 
842.000000	 94.199084 
841.000000	 94.211979 
840.000000	 94.203535 
839.000000	 94.172467 
838.000000	 94.127459 
837.000000	 94.080405 
836.000000	 94.038140 
835.000000	 94.001194 
834.000000	 93.969950 
833.000000	 93.948189 
832.000000	 93.938075 
831.000000	 93.934567 
830.000000	 93.929678 
829.000000	 93.922597 
828.000000	 93.920914 
827.000000	 93.929222 
826.000000	 93.940207 
825.000000	 93.942289 
824.000000	 93.935182 
823.000000	 93.931687 
822.000000	 93.941708 
821.000000	 93.959735 
820.000000	 93.972065 
819.000000	 93.972078 
818.000000	 93.962909 
817.000000	 93.946515 
816.000000	 93.916101 
815.000000	 93.861807 
814.000000	 93.780121 
813.000000	 93.673022 
812.000000	 93.538965 
811.000000	 93.370168 
810.000000	 93.161005 
809.000000	 92.916872 
808.000000	 92.652422 
807.000000	 92.380103 
806.000000	 92.100316 
805.000000	 91.804892 
804.000000	 91.492697 
803.000000	 91.180202 
802.000000	 90.893103 
801.000000	 90.648950 
800.000000	 90.451935 
799.000000	 90.301867 
798.000000	 90.201258 
797.000000	 90.152605 
796.000000	 90.153323 
795.000000	 90.195459 
794.000000	 90.268897 
793.000000	 90.363822 
792.000000	 90.470144 
791.000000	 90.575142 
790.000000	 90.663486 
789.000000	 90.721662 
788.000000	 90.742740 
787.000000	 90.726231 
786.000000	 90.674033 
785.000000	 90.588923 
784.000000	 90.478425 
783.000000	 90.357656 
782.000000	 90.244019 
781.000000	 90.148677 
780.000000	 90.076008 
779.000000	 90.030348 
778.000000	 90.018626 
777.000000	 90.045447 
776.000000	 90.109047 
775.000000	 90.203520 
774.000000	 90.322237 
773.000000	 90.457131 
772.000000	 90.597241 
771.000000	 90.732013 
770.000000	 90.856493 
769.000000	 90.970709 
768.000000	 91.073718 
767.000000	 91.161198 
766.000000	 91.229111 
765.000000	 91.276656 
764.000000	 91.305485 
763.000000	 91.320193 
762.000000	 91.330785 
761.000000	 91.350385 
760.000000	 91.387345 
759.000000	 91.440720 
758.000000	 91.503941 
757.000000	 91.570294 
756.000000	 91.633971 
755.000000	 91.689724 
754.000000	 91.735163 
753.000000	 91.772587 
752.000000	 91.807029 
751.000000	 91.843001 
750.000000	 91.882484 
749.000000	 91.924748 
748.000000	 91.968833 
747.000000	 92.017726 
746.000000	 92.078309 
745.000000	 92.153353 
744.000000	 92.235149 
743.000000	 92.312407 
742.000000	 92.382094 
741.000000	 92.448352 
740.000000	 92.511869 
739.000000	 92.568758 
738.000000	 92.619780 
737.000000	 92.671481 
736.000000	 92.726298 
735.000000	 92.780913 
734.000000	 92.836142 
733.000000	 92.897433 
732.000000	 92.961842 
731.000000	 93.015505 
730.000000	 93.048866 
729.000000	 93.063433 
728.000000	 93.066448 
727.000000	 93.068099 
726.000000	 93.080436 
725.000000	 93.112227 
724.000000	 93.160082 
723.000000	 93.210407 
722.000000	 93.255172 
721.000000	 93.300753 
720.000000	 93.357558 
719.000000	 93.424996 
718.000000	 93.490834 
717.000000	 93.542786 
716.000000	 93.575458 
715.000000	 93.591940 
714.000000	 93.604073 
713.000000	 93.624106 
712.000000	 93.652565 
711.000000	 93.674634 
710.000000	 93.676947 
709.000000	 93.664685 
708.000000	 93.648763 
707.000000	 93.638692 
706.000000	 93.636015 
705.000000	 93.630393 
704.000000	 93.606684 
703.000000	 93.555537 
702.000000	 93.482961 
701.000000	 93.403057 
700.000000	 93.315807 
699.000000	 93.207865 
698.000000	 93.073788 
697.000000	 92.932198 
696.000000	 92.817229 
695.000000	 92.751259 
694.000000	 92.739591 
693.000000	 92.778551 
692.000000	 92.854734 
691.000000	 92.950389 
690.000000	 93.051520 
689.000000	 93.151518 
688.000000	 93.243180 
687.000000	 93.312492 
686.000000	 93.356446 
685.000000	 93.391195 
684.000000	 93.430728 
683.000000	 93.475291 
682.000000	 93.524279 
681.000000	 93.583563 
680.000000	 93.649736 
679.000000	 93.706755 
678.000000	 93.747984 
677.000000	 93.777951 
676.000000	 93.802147 
675.000000	 93.825049 
674.000000	 93.853189 
673.000000	 93.897886 
672.000000	 93.975178 
671.000000	 94.101459 
670.000000	 94.285998 
669.000000	 94.492238 
668.000000	 94.583812 
667.000000	 94.503578 
666.000000	 94.381834 
665.000000	 94.304147 
664.000000	 94.270431 
663.000000	 94.275886 
662.000000	 94.306823 
661.000000	 94.338770 
660.000000	 94.356063 
659.000000	 94.369165 
658.000000	 94.394722 
657.000000	 94.427269 
656.000000	 94.456493 
655.000000	 94.490772 
654.000000	 94.534899 
653.000000	 94.574677 
652.000000	 94.605916 
651.000000	 94.645428 
650.000000	 94.698429 

