PE IR                   SPECTRUM    ASCII       PEDS        1.60        
  -1
~SP.SP
22/12/06
16:37:03.00
23/01/09
15:01:37.00
Administrator

650.000000
4









FRONTIER FT-IR,CPU32 MAIN 00.09.9951 07-SEPTEMBER-2011 11:49:41
MIR TGS
MIR
OPTKBR
90694
0.200000

4.000000
STRONG
RATIO
SPECTRUM
MAGNITUDE
MIRACLE ATR
DOUBLE

COMBINED


0


#HDR
-1
-1
#GR
CM-1
%T
0.00002384185791015625
0.0
4000.000000
-1.000000
3351
8
79.675940
65.131562
#DATA
4000.000000	79.655706 
3999.000000	79.655345 
3998.000000	79.651655 
3997.000000	79.645632 
3996.000000	79.639483 
3995.000000	79.634765 
3994.000000	79.632249 
3993.000000	79.631958 
3992.000000	79.632851 
3991.000000	79.633530 
3990.000000	79.633640 
3989.000000	79.633824 
3988.000000	79.634462 
3987.000000	79.635062 
3986.000000	79.634940 
3985.000000	79.634095 
3984.000000	79.633178 
3983.000000	79.632644 
3982.000000	79.632189 
3981.000000	79.631126 
3980.000000	79.629222 
3979.000000	79.627031 
3978.000000	79.625419 
3977.000000	79.624737 
3976.000000	79.624430 
3975.000000	79.623582 
3974.000000	79.621830 
3973.000000	79.619591 
3972.000000	79.617457 
3971.000000	79.615616 
3970.000000	79.614014 
3969.000000	79.612639 
3968.000000	79.611384 
3967.000000	79.609909 
3966.000000	79.607916 
3965.000000	79.605538 
3964.000000	79.603282 
3963.000000	79.601542 
3962.000000	79.600283 
3961.000000	79.599184 
3960.000000	79.597998 
3959.000000	79.596774 
3958.000000	79.595750 
3957.000000	79.595000 
3956.000000	79.594226 
3955.000000	79.592953 
3954.000000	79.590975 
3953.000000	79.588435 
3952.000000	79.585686 
3951.000000	79.583126 
3950.000000	79.581051 
3949.000000	79.579542 
3948.000000	79.578370 
3947.000000	79.577123 
3946.000000	79.575514 
3945.000000	79.573614 
3944.000000	79.571819 
3943.000000	79.570517 
3942.000000	79.569684 
3941.000000	79.568786 
3940.000000	79.567133 
3939.000000	79.564388 
3938.000000	79.560755 
3937.000000	79.556769 
3936.000000	79.552996 
3935.000000	79.549942 
3934.000000	79.548137 
3933.000000	79.547733 
3932.000000	79.547925 
3931.000000	79.547264 
3930.000000	79.544995 
3929.000000	79.541863 
3928.000000	79.539300 
3927.000000	79.537833 
3926.000000	79.536757 
3925.000000	79.535239 
3924.000000	79.532944 
3923.000000	79.529449 
3922.000000	79.524359 
3921.000000	79.518563 
3920.000000	79.514188 
3919.000000	79.512590 
3918.000000	79.513229 
3917.000000	79.514842 
3916.000000	79.516800 
3915.000000	79.518701 
3914.000000	79.519715 
3913.000000	79.519454 
3912.000000	79.518028 
3911.000000	79.515133 
3910.000000	79.510209 
3909.000000	79.503730 
3908.000000	79.497773 
3907.000000	79.494045 
3906.000000	79.492082 
3905.000000	79.489640 
3904.000000	79.485472 
3903.000000	79.480677 
3902.000000	79.476829 
3901.000000	79.473992 
3900.000000	79.471567 
3899.000000	79.469642 
3898.000000	79.468291 
3897.000000	79.466901 
3896.000000	79.464979 
3895.000000	79.463580 
3894.000000	79.463901 
3893.000000	79.465307 
3892.000000	79.465741 
3891.000000	79.464304 
3890.000000	79.462111 
3889.000000	79.459982 
3888.000000	79.457813 
3887.000000	79.455547 
3886.000000	79.453507 
3885.000000	79.452037 
3884.000000	79.450932 
3883.000000	79.449657 
3882.000000	79.448289 
3881.000000	79.447231 
3880.000000	79.446500 
3879.000000	79.445826 
3878.000000	79.444948 
3877.000000	79.443778 
3876.000000	79.442398 
3875.000000	79.440962 
3874.000000	79.439665 
3873.000000	79.438577 
3872.000000	79.437589 
3871.000000	79.436604 
3870.000000	79.435686 
3869.000000	79.434934 
3868.000000	79.434321 
3867.000000	79.433769 
3866.000000	79.433268 
3865.000000	79.432855 
3864.000000	79.432519 
3863.000000	79.432223 
3862.000000	79.431948 
3861.000000	79.431704 
3860.000000	79.431500 
3859.000000	79.431334 
3858.000000	79.431190 
3857.000000	79.431044 
3856.000000	79.430868 
3855.000000	79.430624 
3854.000000	79.430290 
3853.000000	79.429891 
3852.000000	79.429482 
3851.000000	79.429091 
3850.000000	79.428708 
3849.000000	79.428318 
3848.000000	79.427908 
3847.000000	79.427471 
3846.000000	79.427019 
3845.000000	79.426572 
3844.000000	79.426144 
3843.000000	79.425740 
3842.000000	79.425361 
3841.000000	79.425006 
3840.000000	79.424674 
3839.000000	79.424356 
3838.000000	79.424053 
3837.000000	79.423775 
3836.000000	79.423546 
3835.000000	79.423377 
3834.000000	79.423260 
3833.000000	79.423174 
3832.000000	79.423094 
3831.000000	79.423004 
3830.000000	79.422902 
3829.000000	79.422786 
3828.000000	79.422652 
3827.000000	79.422487 
3826.000000	79.422281 
3825.000000	79.422032 
3824.000000	79.421736 
3823.000000	79.421374 
3822.000000	79.420935 
3821.000000	79.420432 
3820.000000	79.419895 
3819.000000	79.419336 
3818.000000	79.418732 
3817.000000	79.418060 
3816.000000	79.417323 
3815.000000	79.416540 
3814.000000	79.415721 
3813.000000	79.414872 
3812.000000	79.414005 
3811.000000	79.413134 
3810.000000	79.412251 
3809.000000	79.411330 
3808.000000	79.410360 
3807.000000	79.409360 
3806.000000	79.408365 
3805.000000	79.407404 
3804.000000	79.406469 
3803.000000	79.405530 
3802.000000	79.404559 
3801.000000	79.403549 
3800.000000	79.402505 
3799.000000	79.401423 
3798.000000	79.400293 
3797.000000	79.399113 
3796.000000	79.397889 
3795.000000	79.396620 
3794.000000	79.395306 
3793.000000	79.393947 
3792.000000	79.392541 
3791.000000	79.391085 
3790.000000	79.389578 
3789.000000	79.388031 
3788.000000	79.386452 
3787.000000	79.384839 
3786.000000	79.383180 
3785.000000	79.381474 
3784.000000	79.379769 
3783.000000	79.378118 
3782.000000	79.376469 
3781.000000	79.374719 
3780.000000	79.372899 
3779.000000	79.371212 
3778.000000	79.369798 
3777.000000	79.368413 
3776.000000	79.366653 
3775.000000	79.364505 
3774.000000	79.362400 
3773.000000	79.360723 
3772.000000	79.359351 
3771.000000	79.357743 
3770.000000	79.355610 
3769.000000	79.353283 
3768.000000	79.351026 
3767.000000	79.348444 
3766.000000	79.345439 
3765.000000	79.343036 
3764.000000	79.342406 
3763.000000	79.342924 
3762.000000	79.342325 
3761.000000	79.339572 
3760.000000	79.335603 
3759.000000	79.331608 
3758.000000	79.328118 
3757.000000	79.325783 
3756.000000	79.325114 
3755.000000	79.324971 
3754.000000	79.323969 
3753.000000	79.323068 
3752.000000	79.323875 
3751.000000	79.323274 
3750.000000	79.316456 
3749.000000	79.306478 
3748.000000	79.301093 
3747.000000	79.301950 
3746.000000	79.304235 
3745.000000	79.301745 
3744.000000	79.295430 
3743.000000	79.290979 
3742.000000	79.283102 
3741.000000	79.266407 
3740.000000	79.248357 
3739.000000	79.236842 
3738.000000	79.230258 
3737.000000	79.223511 
3736.000000	79.219596 
3735.000000	79.224826 
3734.000000	79.235690 
3733.000000	79.241537 
3732.000000	79.239502 
3731.000000	79.235187 
3730.000000	79.230673 
3729.000000	79.221522 
3728.000000	79.205460 
3727.000000	79.187829 
3726.000000	79.176568 
3725.000000	79.172401 
3724.000000	79.167836 
3723.000000	79.157163 
3722.000000	79.141790 
3721.000000	79.127671 
3720.000000	79.119266 
3719.000000	79.115446 
3718.000000	79.111687 
3717.000000	79.105531 
3716.000000	79.097662 
3715.000000	79.088674 
3714.000000	79.079185 
3713.000000	79.069694 
3712.000000	79.058432 
3711.000000	79.043152 
3710.000000	79.024786 
3709.000000	79.005344 
3708.000000	78.985308 
3707.000000	78.964812 
3706.000000	78.944495 
3705.000000	78.924714 
3704.000000	78.905297 
3703.000000	78.885905 
3702.000000	78.866276 
3701.000000	78.847698 
3700.000000	78.832464 
3699.000000	78.820028 
3698.000000	78.807519 
3697.000000	78.794408 
3696.000000	78.782303 
3695.000000	78.770062 
3694.000000	78.754093 
3693.000000	78.734218 
3692.000000	78.713882 
3691.000000	78.693691 
3690.000000	78.669655 
3689.000000	78.641723 
3688.000000	78.620002 
3687.000000	78.612285 
3686.000000	78.612780 
3685.000000	78.611830 
3684.000000	78.608524 
3683.000000	78.607147 
3682.000000	78.606641 
3681.000000	78.599241 
3680.000000	78.581559 
3679.000000	78.559130 
3678.000000	78.536968 
3677.000000	78.513889 
3676.000000	78.488910 
3675.000000	78.471218 
3674.000000	78.468230 
3673.000000	78.468401 
3672.000000	78.458609 
3671.000000	78.440822 
3670.000000	78.423057 
3669.000000	78.411012 
3668.000000	78.404031 
3667.000000	78.397923 
3666.000000	78.391874 
3665.000000	78.386555 
3664.000000	78.380861 
3663.000000	78.372904 
3662.000000	78.362334 
3661.000000	78.350597 
3660.000000	78.340174 
3659.000000	78.332185 
3658.000000	78.325381 
3657.000000	78.317436 
3656.000000	78.309014 
3655.000000	78.303805 
3654.000000	78.300405 
3653.000000	78.294264 
3652.000000	78.286292 
3651.000000	78.281563 
3650.000000	78.282840 
3649.000000	78.289928 
3648.000000	78.301295 
3647.000000	78.314014 
3646.000000	78.324101 
3645.000000	78.329485 
3644.000000	78.332108 
3643.000000	78.335964 
3642.000000	78.342613 
3641.000000	78.348353 
3640.000000	78.347202 
3639.000000	78.337444 
3638.000000	78.325385 
3637.000000	78.319050 
3636.000000	78.319524 
3635.000000	78.321715 
3634.000000	78.322724 
3633.000000	78.324793 
3632.000000	78.329126 
3631.000000	78.333461 
3630.000000	78.334871 
3629.000000	78.334456 
3628.000000	78.338903 
3627.000000	78.348163 
3626.000000	78.351380 
3625.000000	78.344019 
3624.000000	78.331136 
3623.000000	78.318759 
3622.000000	78.310780 
3621.000000	78.310520 
3620.000000	78.319562 
3619.000000	78.333986 
3618.000000	78.347667 
3617.000000	78.358505 
3616.000000	78.368449 
3615.000000	78.380103 
3614.000000	78.394300 
3613.000000	78.409417 
3612.000000	78.422482 
3611.000000	78.431567 
3610.000000	78.438595 
3609.000000	78.448797 
3608.000000	78.465176 
3607.000000	78.484549 
3606.000000	78.500367 
3605.000000	78.509385 
3604.000000	78.513662 
3603.000000	78.516742 
3602.000000	78.519946 
3601.000000	78.523162 
3600.000000	78.527549 
3599.000000	78.534530 
3598.000000	78.544458 
3597.000000	78.556835 
3596.000000	78.569964 
3595.000000	78.581207 
3594.000000	78.588316 
3593.000000	78.590238 
3592.000000	78.587539 
3591.000000	78.583163 
3590.000000	78.581754 
3589.000000	78.587209 
3588.000000	78.599254 
3587.000000	78.613075 
3586.000000	78.623393 
3585.000000	78.628346 
3584.000000	78.629335 
3583.000000	78.628593 
3582.000000	78.627369 
3581.000000	78.626203 
3580.000000	78.625755 
3579.000000	78.626767 
3578.000000	78.629766 
3577.000000	78.635251 
3576.000000	78.643276 
3575.000000	78.652445 
3574.000000	78.659703 
3573.000000	78.661823 
3572.000000	78.657471 
3571.000000	78.648065 
3570.000000	78.637018 
3569.000000	78.628510 
3568.000000	78.626226 
3567.000000	78.631204 
3566.000000	78.640644 
3565.000000	78.650083 
3564.000000	78.657203 
3563.000000	78.662743 
3562.000000	78.668289 
3561.000000	78.674214 
3560.000000	78.679544 
3559.000000	78.683094 
3558.000000	78.684340 
3557.000000	78.683716 
3556.000000	78.682566 
3555.000000	78.682421 
3554.000000	78.683941 
3553.000000	78.686308 
3552.000000	78.687746 
3551.000000	78.686813 
3550.000000	78.683319 
3549.000000	78.678351 
3548.000000	78.673797 
3547.000000	78.671392 
3546.000000	78.671948 
3545.000000	78.675347 
3544.000000	78.680992 
3543.000000	78.688004 
3542.000000	78.695146 
3541.000000	78.701049 
3540.000000	78.704743 
3539.000000	78.706115 
3538.000000	78.706217 
3537.000000	78.706909 
3536.000000	78.709670 
3535.000000	78.714528 
3534.000000	78.720190 
3533.000000	78.725100 
3532.000000	78.728337 
3531.000000	78.729738 
3530.000000	78.729725 
3529.000000	78.729267 
3528.000000	78.729401 
3527.000000	78.730458 
3526.000000	78.731957 
3525.000000	78.733486 
3524.000000	78.735335 
3523.000000	78.737989 
3522.000000	78.741408 
3521.000000	78.745132 
3520.000000	78.748907 
3519.000000	78.752776 
3518.000000	78.756562 
3517.000000	78.759638 
3516.000000	78.761451 
3515.000000	78.762142 
3514.000000	78.762477 
3513.000000	78.763274 
3512.000000	78.764940 
3511.000000	78.767480 
3510.000000	78.770604 
3509.000000	78.773796 
3508.000000	78.776504 
3507.000000	78.778525 
3506.000000	78.780093 
3505.000000	78.781656 
3504.000000	78.783513 
3503.000000	78.785651 
3502.000000	78.787908 
3501.000000	78.790119 
3500.000000	78.792175 
3499.000000	78.794018 
3498.000000	78.795635 
3497.000000	78.797088 
3496.000000	78.798498 
3495.000000	78.799957 
3494.000000	78.801466 
3493.000000	78.802999 
3492.000000	78.804589 
3491.000000	78.806328 
3490.000000	78.808252 
3489.000000	78.810265 
3488.000000	78.812194 
3487.000000	78.813934 
3486.000000	78.815511 
3485.000000	78.817028 
3484.000000	78.818541 
3483.000000	78.820030 
3482.000000	78.821472 
3481.000000	78.822907 
3480.000000	78.824406 
3479.000000	78.825987 
3478.000000	78.827581 
3477.000000	78.829077 
3476.000000	78.830434 
3475.000000	78.831732 
3474.000000	78.833116 
3473.000000	78.834669 
3472.000000	78.836333 
3471.000000	78.837944 
3470.000000	78.839388 
3469.000000	78.840667 
3468.000000	78.841840 
3467.000000	78.842992 
3466.000000	78.844283 
3465.000000	78.845901 
3464.000000	78.847850 
3463.000000	78.849857 
3462.000000	78.851631 
3461.000000	78.853127 
3460.000000	78.854547 
3459.000000	78.856097 
3458.000000	78.857790 
3457.000000	78.859491 
3456.000000	78.861119 
3455.000000	78.862748 
3454.000000	78.864452 
3453.000000	78.866137 
3452.000000	78.867667 
3451.000000	78.869114 
3450.000000	78.870629 
3449.000000	78.872160 
3448.000000	78.873592 
3447.000000	78.875172 
3446.000000	78.877301 
3445.000000	78.879775 
3444.000000	78.881848 
3443.000000	78.883323 
3442.000000	78.884986 
3441.000000	78.887454 
3440.000000	78.889898 
3439.000000	78.890617 
3438.000000	78.888902 
3437.000000	78.885884 
3436.000000	78.883560 
3435.000000	78.883097 
3434.000000	78.884250 
3433.000000	78.885921 
3432.000000	78.887350 
3431.000000	78.888807 
3430.000000	78.891012 
3429.000000	78.894096 
3428.000000	78.897277 
3427.000000	78.899580 
3426.000000	78.900624 
3425.000000	78.900692 
3424.000000	78.900407 
3423.000000	78.900551 
3422.000000	78.901839 
3421.000000	78.904327 
3420.000000	78.907250 
3419.000000	78.909837 
3418.000000	78.912070 
3417.000000	78.914103 
3416.000000	78.915396 
3415.000000	78.915305 
3414.000000	78.914386 
3413.000000	78.914002 
3412.000000	78.914267 
3411.000000	78.913544 
3410.000000	78.910716 
3409.000000	78.907085 
3408.000000	78.905099 
3407.000000	78.905553 
3406.000000	78.907109 
3405.000000	78.908124 
3404.000000	78.907885 
3403.000000	78.906177 
3402.000000	78.903024 
3401.000000	78.899471 
3400.000000	78.897639 
3399.000000	78.899093 
3398.000000	78.903254 
3397.000000	78.907620 
3396.000000	78.909528 
3395.000000	78.907901 
3394.000000	78.903787 
3393.000000	78.899749 
3392.000000	78.898166 
3391.000000	78.899497 
3390.000000	78.902295 
3389.000000	78.905055 
3388.000000	78.907961 
3387.000000	78.912457 
3386.000000	78.919164 
3385.000000	78.926488 
3384.000000	78.931618 
3383.000000	78.932975 
3382.000000	78.931479 
3381.000000	78.929489 
3380.000000	78.928473 
3379.000000	78.927851 
3378.000000	78.926243 
3377.000000	78.923455 
3376.000000	78.920856 
3375.000000	78.919909 
3374.000000	78.920684 
3373.000000	78.921905 
3372.000000	78.922195 
3371.000000	78.921061 
3370.000000	78.918888 
3369.000000	78.916424 
3368.000000	78.914412 
3367.000000	78.913390 
3366.000000	78.913391 
3365.000000	78.913860 
3364.000000	78.914164 
3363.000000	78.914228 
3362.000000	78.914379 
3361.000000	78.914555 
3360.000000	78.914115 
3359.000000	78.912730 
3358.000000	78.911115 
3357.000000	78.910345 
3356.000000	78.910468 
3355.000000	78.910263 
3354.000000	78.908577 
3353.000000	78.905525 
3352.000000	78.902348 
3351.000000	78.900273 
3350.000000	78.899640 
3349.000000	78.900051 
3348.000000	78.900764 
3347.000000	78.901013 
3346.000000	78.900321 
3345.000000	78.898703 
3344.000000	78.896636 
3343.000000	78.894662 
3342.000000	78.892947 
3341.000000	78.891338 
3340.000000	78.889690 
3339.000000	78.888005 
3338.000000	78.886327 
3337.000000	78.884670 
3336.000000	78.883117 
3335.000000	78.881868 
3334.000000	78.881047 
3333.000000	78.880431 
3332.000000	78.879491 
3331.000000	78.877830 
3330.000000	78.875463 
3329.000000	78.872694 
3328.000000	78.869777 
3327.000000	78.866808 
3326.000000	78.863962 
3325.000000	78.861590 
3324.000000	78.859955 
3323.000000	78.858860 
3322.000000	78.857652 
3321.000000	78.855699 
3320.000000	78.852795 
3319.000000	78.849097 
3318.000000	78.844909 
3317.000000	78.840742 
3316.000000	78.837347 
3315.000000	78.835256 
3314.000000	78.834130 
3313.000000	78.832791 
3312.000000	78.830327 
3311.000000	78.826992 
3310.000000	78.823728 
3309.000000	78.820920 
3308.000000	78.818029 
3307.000000	78.814388 
3306.000000	78.809882 
3305.000000	78.804845 
3304.000000	78.799874 
3303.000000	78.795823 
3302.000000	78.793429 
3301.000000	78.792572 
3300.000000	78.791994 
3299.000000	78.790104 
3298.000000	78.786136 
3297.000000	78.780460 
3296.000000	78.774094 
3295.000000	78.767885 
3294.000000	78.762018 
3293.000000	78.756206 
3292.000000	78.750451 
3291.000000	78.745559 
3290.000000	78.742398 
3289.000000	78.740594 
3288.000000	78.738383 
3287.000000	78.734295 
3286.000000	78.728784 
3285.000000	78.723817 
3284.000000	78.720905 
3283.000000	78.719932 
3282.000000	78.719688 
3281.000000	78.718881 
3280.000000	78.716522 
3279.000000	78.711919 
3278.000000	78.704995 
3277.000000	78.696626 
3276.000000	78.688269 
3275.000000	78.681107 
3274.000000	78.675723 
3273.000000	78.672307 
3272.000000	78.670608 
3271.000000	78.669671 
3270.000000	78.668289 
3269.000000	78.666104 
3268.000000	78.663940 
3267.000000	78.662632 
3266.000000	78.661716 
3265.000000	78.659784 
3264.000000	78.656219 
3263.000000	78.652085 
3262.000000	78.648864 
3261.000000	78.646626 
3260.000000	78.644058 
3259.000000	78.640335 
3258.000000	78.636203 
3257.000000	78.632854 
3256.000000	78.630227 
3255.000000	78.627084 
3254.000000	78.622708 
3253.000000	78.617895 
3252.000000	78.614054 
3251.000000	78.611653 
3250.000000	78.609899 
3249.000000	78.607719 
3248.000000	78.604705 
3247.000000	78.601103 
3246.000000	78.597307 
3245.000000	78.593593 
3244.000000	78.590082 
3243.000000	78.586633 
3242.000000	78.582835 
3241.000000	78.578412 
3240.000000	78.573669 
3239.000000	78.569303 
3238.000000	78.565678 
3237.000000	78.562486 
3236.000000	78.559206 
3235.000000	78.555716 
3234.000000	78.552255 
3233.000000	78.548946 
3232.000000	78.545673 
3231.000000	78.542368 
3230.000000	78.539179 
3229.000000	78.536254 
3228.000000	78.533515 
3227.000000	78.530689 
3226.000000	78.527528 
3225.000000	78.523981 
3224.000000	78.520210 
3223.000000	78.516540 
3222.000000	78.513265 
3221.000000	78.510463 
3220.000000	78.507915 
3219.000000	78.505163 
3218.000000	78.501903 
3217.000000	78.498200 
3216.000000	78.494442 
3215.000000	78.490983 
3214.000000	78.487846 
3213.000000	78.484783 
3212.000000	78.481524 
3211.000000	78.477980 
3210.000000	78.474248 
3209.000000	78.470527 
3208.000000	78.467036 
3207.000000	78.463899 
3206.000000	78.461050 
3205.000000	78.458245 
3204.000000	78.455245 
3203.000000	78.452011 
3202.000000	78.448678 
3201.000000	78.445409 
3200.000000	78.442328 
3199.000000	78.439534 
3198.000000	78.437046 
3197.000000	78.434723 
3196.000000	78.432348 
3195.000000	78.429867 
3194.000000	78.427481 
3193.000000	78.425414 
3192.000000	78.423564 
3191.000000	78.421453 
3190.000000	78.418609 
3189.000000	78.414999 
3188.000000	78.411134 
3187.000000	78.407734 
3186.000000	78.405125 
3185.000000	78.402956 
3184.000000	78.400458 
3183.000000	78.397145 
3182.000000	78.393265 
3181.000000	78.389592 
3180.000000	78.386737 
3179.000000	78.384677 
3178.000000	78.382884 
3177.000000	78.380961 
3176.000000	78.379035 
3175.000000	78.377338 
3174.000000	78.375636 
3173.000000	78.373363 
3172.000000	78.370349 
3171.000000	78.367093 
3170.000000	78.364093 
3169.000000	78.361261 
3168.000000	78.358334 
3167.000000	78.355596 
3166.000000	78.353649 
3165.000000	78.352471 
3164.000000	78.351153 
3163.000000	78.348794 
3162.000000	78.345395 
3161.000000	78.341760 
3160.000000	78.338671 
3159.000000	78.336254 
3158.000000	78.334014 
3157.000000	78.331345 
3156.000000	78.328176 
3155.000000	78.325223 
3154.000000	78.323421 
3153.000000	78.323010 
3152.000000	78.323298 
3151.000000	78.323221 
3150.000000	78.322260 
3149.000000	78.320726 
3148.000000	78.319258 
3147.000000	78.318127 
3146.000000	78.316993 
3145.000000	78.315343 
3144.000000	78.313081 
3143.000000	78.310580 
3142.000000	78.308168 
3141.000000	78.305854 
3140.000000	78.303676 
3139.000000	78.301979 
3138.000000	78.301085 
3137.000000	78.300825 
3136.000000	78.300589 
3135.000000	78.299833 
3134.000000	78.298437 
3133.000000	78.296637 
3132.000000	78.294865 
3131.000000	78.293504 
3130.000000	78.292651 
3129.000000	78.292088 
3128.000000	78.291516 
3127.000000	78.290823 
3126.000000	78.290037 
3125.000000	78.289154 
3124.000000	78.288153 
3123.000000	78.287122 
3122.000000	78.286191 
3121.000000	78.285337 
3120.000000	78.284380 
3119.000000	78.283221 
3118.000000	78.281986 
3117.000000	78.280906 
3116.000000	78.280101 
3115.000000	78.279539 
3114.000000	78.279085 
3113.000000	78.278544 
3112.000000	78.277747 
3111.000000	78.276678 
3110.000000	78.275556 
3109.000000	78.274723 
3108.000000	78.274371 
3107.000000	78.274393 
3106.000000	78.274475 
3105.000000	78.274350 
3104.000000	78.273896 
3103.000000	78.273049 
3102.000000	78.271764 
3101.000000	78.270194 
3100.000000	78.268876 
3099.000000	78.268495 
3098.000000	78.269307 
3097.000000	78.270769 
3096.000000	78.271912 
3095.000000	78.272033 
3094.000000	78.270720 
3093.000000	78.267538 
3092.000000	78.262604 
3091.000000	78.257565 
3090.000000	78.254814 
3089.000000	78.255208 
3088.000000	78.257071 
3087.000000	78.257886 
3086.000000	78.256657 
3085.000000	78.253927 
3084.000000	78.250448 
3083.000000	78.246853 
3082.000000	78.244058 
3081.000000	78.242878 
3080.000000	78.243351 
3079.000000	78.245029 
3078.000000	78.247537 
3077.000000	78.250350 
3076.000000	78.252639 
3075.000000	78.253918 
3074.000000	78.254341 
3073.000000	78.254285 
3072.000000	78.254453 
3071.000000	78.256120 
3070.000000	78.259786 
3069.000000	78.263484 
3068.000000	78.264186 
3067.000000	78.261358 
3066.000000	78.257548 
3065.000000	78.255260 
3064.000000	78.255101 
3063.000000	78.257038 
3062.000000	78.260636 
3061.000000	78.263293 
3060.000000	78.261491 
3059.000000	78.255504 
3058.000000	78.249974 
3057.000000	78.247643 
3056.000000	78.245336 
3055.000000	78.239319 
3054.000000	78.231941 
3053.000000	78.228833 
3052.000000	78.230674 
3051.000000	78.231886 
3050.000000	78.227831 
3049.000000	78.219896 
3048.000000	78.212590 
3047.000000	78.208278 
3046.000000	78.206196 
3045.000000	78.204630 
3044.000000	78.202109 
3043.000000	78.197215 
3042.000000	78.188736 
3041.000000	78.176427 
3040.000000	78.161513 
3039.000000	78.146146 
3038.000000	78.131986 
3037.000000	78.119273 
3036.000000	78.107589 
3035.000000	78.097124 
3034.000000	78.088237 
3033.000000	78.080057 
3032.000000	78.071320 
3031.000000	78.062624 
3030.000000	78.055266 
3029.000000	78.047185 
3028.000000	78.033058 
3027.000000	78.010006 
3026.000000	77.981133 
3025.000000	77.951637 
3024.000000	77.923085 
3023.000000	77.893922 
3022.000000	77.864013 
3021.000000	77.835346 
3020.000000	77.808690 
3019.000000	77.782533 
3018.000000	77.755712 
3017.000000	77.728706 
3016.000000	77.701633 
3015.000000	77.673046 
3014.000000	77.641854 
3013.000000	77.609097 
3012.000000	77.576757 
3011.000000	77.545634 
3010.000000	77.515296 
3009.000000	77.485518 
3008.000000	77.456776 
3007.000000	77.429313 
3006.000000	77.402294 
3005.000000	77.374394 
3004.000000	77.345224 
3003.000000	77.315661 
3002.000000	77.286473 
3001.000000	77.257413 
3000.000000	77.228557 
2999.000000	77.202016 
2998.000000	77.180910 
2997.000000	77.166320 
2996.000000	77.155789 
2995.000000	77.144104 
2994.000000	77.124509 
2993.000000	77.091138 
2992.000000	77.044439 
2991.000000	76.995150 
2990.000000	76.959503 
2989.000000	76.948191 
2988.000000	76.961224 
2987.000000	76.992780 
2986.000000	77.036953 
2985.000000	77.086805 
2984.000000	77.132395 
2983.000000	77.165868 
2982.000000	77.187962 
2981.000000	77.205590 
2980.000000	77.223205 
2979.000000	77.239525 
2978.000000	77.251954 
2977.000000	77.260009 
2976.000000	77.263800 
2975.000000	77.262873 
2974.000000	77.258167 
2973.000000	77.252191 
2972.000000	77.245375 
2971.000000	77.234451 
2970.000000	77.216573 
2969.000000	77.193909 
2968.000000	77.172675 
2967.000000	77.158519 
2966.000000	77.153599 
2965.000000	77.156442 
2964.000000	77.162761 
2963.000000	77.167291 
2962.000000	77.166870 
2961.000000	77.162315 
2960.000000	77.157058 
2959.000000	77.154414 
2958.000000	77.156514 
2957.000000	77.164670 
2956.000000	77.179134 
2955.000000	77.198238 
2954.000000	77.218730 
2953.000000	77.237832 
2952.000000	77.255079 
2951.000000	77.271676 
2950.000000	77.287588 
2949.000000	77.299734 
2948.000000	77.304289 
2947.000000	77.301296 
2946.000000	77.296263 
2945.000000	77.295915 
2944.000000	77.302496 
2943.000000	77.313233 
2942.000000	77.324626 
2941.000000	77.335387 
2940.000000	77.345375 
2939.000000	77.354092 
2938.000000	77.360988 
2937.000000	77.365889 
2936.000000	77.368392 
2935.000000	77.367838 
2934.000000	77.364635 
2933.000000	77.360546 
2932.000000	77.356513 
2931.000000	77.351001 
2930.000000	77.341828 
2929.000000	77.329276 
2928.000000	77.316255 
2927.000000	77.305448 
2926.000000	77.297500 
2925.000000	77.292068 
2924.000000	77.289135 
2923.000000	77.288279 
2922.000000	77.287625 
2921.000000	77.285166 
2920.000000	77.281238 
2919.000000	77.278498 
2918.000000	77.278768 
2917.000000	77.280473 
2916.000000	77.279638 
2915.000000	77.273067 
2914.000000	77.260581 
2913.000000	77.245299 
2912.000000	77.232450 
2911.000000	77.226549 
2910.000000	77.227832 
2909.000000	77.231530 
2908.000000	77.232121 
2907.000000	77.228313 
2906.000000	77.222142 
2905.000000	77.213492 
2904.000000	77.199049 
2903.000000	77.179275 
2902.000000	77.164046 
2901.000000	77.166817 
2900.000000	77.192351 
2899.000000	77.231332 
2898.000000	77.267447 
2897.000000	77.290263 
2896.000000	77.300964 
2895.000000	77.307332 
2894.000000	77.315612 
2893.000000	77.326564 
2892.000000	77.337368 
2891.000000	77.345614 
2890.000000	77.351190 
2889.000000	77.355165 
2888.000000	77.358072 
2887.000000	77.360023 
2886.000000	77.362221 
2885.000000	77.367474 
2884.000000	77.378710 
2883.000000	77.397030 
2882.000000	77.421138 
2881.000000	77.448122 
2880.000000	77.474570 
2879.000000	77.497644 
2878.000000	77.516097 
2877.000000	77.530687 
2876.000000	77.543102 
2875.000000	77.553918 
2874.000000	77.561856 
2873.000000	77.565653 
2872.000000	77.566628 
2871.000000	77.568659 
2870.000000	77.575174 
2869.000000	77.586505 
2868.000000	77.600493 
2867.000000	77.615163 
2866.000000	77.630211 
2865.000000	77.646028 
2864.000000	77.662187 
2863.000000	77.677610 
2862.000000	77.692120 
2861.000000	77.707132 
2860.000000	77.724120 
2859.000000	77.742340 
2858.000000	77.758669 
2857.000000	77.770483 
2856.000000	77.778351 
2855.000000	77.785175 
2854.000000	77.793750 
2853.000000	77.806034 
2852.000000	77.823708 
2851.000000	77.846804 
2850.000000	77.871321 
2849.000000	77.891040 
2848.000000	77.903528 
2847.000000	77.912681 
2846.000000	77.923819 
2845.000000	77.937766 
2844.000000	77.951804 
2843.000000	77.964528 
2842.000000	77.976481 
2841.000000	77.986966 
2840.000000	77.993998 
2839.000000	77.997928 
2838.000000	78.002030 
2837.000000	78.008380 
2836.000000	78.015527 
2835.000000	78.021442 
2834.000000	78.026486 
2833.000000	78.031920 
2832.000000	78.037316 
2831.000000	78.041339 
2830.000000	78.044091 
2829.000000	78.047123 
2828.000000	78.051610 
2827.000000	78.057602 
2826.000000	78.064545 
2825.000000	78.071601 
2824.000000	78.077758 
2823.000000	78.082217 
2822.000000	78.084447 
2821.000000	78.083930 
2820.000000	78.080748 
2819.000000	78.076571 
2818.000000	78.074037 
2817.000000	78.074648 
2816.000000	78.077964 
2815.000000	78.082935 
2814.000000	78.088930 
2813.000000	78.095128 
2812.000000	78.100138 
2811.000000	78.103057 
2810.000000	78.104326 
2809.000000	78.105004 
2808.000000	78.105624 
2807.000000	78.105971 
2806.000000	78.105496 
2805.000000	78.103954 
2804.000000	78.102069 
2803.000000	78.101314 
2802.000000	78.102362 
2801.000000	78.104165 
2800.000000	78.105469 
2799.000000	78.106741 
2798.000000	78.109377 
2797.000000	78.113430 
2796.000000	78.117410 
2795.000000	78.120117 
2794.000000	78.121438 
2793.000000	78.121569 
2792.000000	78.120828 
2791.000000	78.120227 
2790.000000	78.120922 
2789.000000	78.122954 
2788.000000	78.125312 
2787.000000	78.127246 
2786.000000	78.128851 
2785.000000	78.130409 
2784.000000	78.131842 
2783.000000	78.132962 
2782.000000	78.133808 
2781.000000	78.134587 
2780.000000	78.135469 
2779.000000	78.136505 
2778.000000	78.137663 
2777.000000	78.138880 
2776.000000	78.140082 
2775.000000	78.141206 
2774.000000	78.142244 
2773.000000	78.143240 
2772.000000	78.144235 
2771.000000	78.145237 
2770.000000	78.146233 
2769.000000	78.147214 
2768.000000	78.148188 
2767.000000	78.149190 
2766.000000	78.150250 
2765.000000	78.151373 
2764.000000	78.152530 
2763.000000	78.153678 
2762.000000	78.154790 
2761.000000	78.155853 
2760.000000	78.156855 
2759.000000	78.157790 
2758.000000	78.158691 
2757.000000	78.159618 
2756.000000	78.160608 
2755.000000	78.161651 
2754.000000	78.162686 
2753.000000	78.163638 
2752.000000	78.164468 
2751.000000	78.165242 
2750.000000	78.166126 
2749.000000	78.167235 
2748.000000	78.168525 
2747.000000	78.169858 
2746.000000	78.171170 
2745.000000	78.172462 
2744.000000	78.173660 
2743.000000	78.174617 
2742.000000	78.175268 
2741.000000	78.175678 
2740.000000	78.175951 
2739.000000	78.176228 
2738.000000	78.176751 
2737.000000	78.177775 
2736.000000	78.179349 
2735.000000	78.181221 
2734.000000	78.182995 
2733.000000	78.184392 
2732.000000	78.185398 
2731.000000	78.186287 
2730.000000	78.187364 
2729.000000	78.188582 
2728.000000	78.189607 
2727.000000	78.190374 
2726.000000	78.191309 
2725.000000	78.192693 
2724.000000	78.194119 
2723.000000	78.195034 
2722.000000	78.195540 
2721.000000	78.196098 
2720.000000	78.196624 
2719.000000	78.196582 
2718.000000	78.196022 
2717.000000	78.195920 
2716.000000	78.197279 
2715.000000	78.200180 
2714.000000	78.203716 
2713.000000	78.206650 
2712.000000	78.208216 
2711.000000	78.208399 
2710.000000	78.207732 
2709.000000	78.206819 
2708.000000	78.206022 
2707.000000	78.205687 
2706.000000	78.206095 
2705.000000	78.206992 
2704.000000	78.207627 
2703.000000	78.207543 
2702.000000	78.207050 
2701.000000	78.206760 
2700.000000	78.206915 
2699.000000	78.207353 
2698.000000	78.207816 
2697.000000	78.208087 
2696.000000	78.208096 
2695.000000	78.207969 
2694.000000	78.207761 
2693.000000	78.207080 
2692.000000	78.205424 
2691.000000	78.203091 
2690.000000	78.201351 
2689.000000	78.201218 
2688.000000	78.202434 
2687.000000	78.203914 
2686.000000	78.204987 
2685.000000	78.205814 
2684.000000	78.206672 
2683.000000	78.207438 
2682.000000	78.207876 
2681.000000	78.208079 
2680.000000	78.208405 
2679.000000	78.209085 
2678.000000	78.210005 
2677.000000	78.210835 
2676.000000	78.211312 
2675.000000	78.211419 
2674.000000	78.211319 
2673.000000	78.211249 
2672.000000	78.211411 
2671.000000	78.211863 
2670.000000	78.212468 
2669.000000	78.212981 
2668.000000	78.213258 
2667.000000	78.213365 
2666.000000	78.213497 
2665.000000	78.213815 
2664.000000	78.214324 
2663.000000	78.214928 
2662.000000	78.215523 
2661.000000	78.216049 
2660.000000	78.216494 
2659.000000	78.216892 
2658.000000	78.217320 
2657.000000	78.217821 
2656.000000	78.218343 
2655.000000	78.218782 
2654.000000	78.219112 
2653.000000	78.219412 
2652.000000	78.219791 
2651.000000	78.220280 
2650.000000	78.220819 
2649.000000	78.221347 
2648.000000	78.221873 
2647.000000	78.222448 
2646.000000	78.223082 
2645.000000	78.223728 
2644.000000	78.224329 
2643.000000	78.224867 
2642.000000	78.225356 
2641.000000	78.225772 
2640.000000	78.226065 
2639.000000	78.226270 
2638.000000	78.226511 
2637.000000	78.226806 
2636.000000	78.227006 
2635.000000	78.227034 
2634.000000	78.227032 
2633.000000	78.227156 
2632.000000	78.227337 
2631.000000	78.227479 
2630.000000	78.227743 
2629.000000	78.228360 
2628.000000	78.229237 
2627.000000	78.230031 
2626.000000	78.230621 
2625.000000	78.231192 
2624.000000	78.231853 
2623.000000	78.232419 
2622.000000	78.232670 
2621.000000	78.232679 
2620.000000	78.232796 
2619.000000	78.233334 
2618.000000	78.234294 
2617.000000	78.235336 
2616.000000	78.236043 
2615.000000	78.236289 
2614.000000	78.236264 
2613.000000	78.236246 
2612.000000	78.236358 
2611.000000	78.236618 
2610.000000	78.237090 
2609.000000	78.237842 
2608.000000	78.238759 
2607.000000	78.239491 
2606.000000	78.239714 
2605.000000	78.239410 
2604.000000	78.238909 
2603.000000	78.238627 
2602.000000	78.238698 
2601.000000	78.238982 
2600.000000	78.239422 
2599.000000	78.240222 
2598.000000	78.241508 
2597.000000	78.242976 
2596.000000	78.244094 
2595.000000	78.244662 
2594.000000	78.244937 
2593.000000	78.245278 
2592.000000	78.245761 
2591.000000	78.246257 
2590.000000	78.246729 
2589.000000	78.247281 
2588.000000	78.248020 
2587.000000	78.248963 
2586.000000	78.249991 
2585.000000	78.250844 
2584.000000	78.251293 
2583.000000	78.251394 
2582.000000	78.251454 
2581.000000	78.251626 
2580.000000	78.251766 
2579.000000	78.251874 
2578.000000	78.252386 
2577.000000	78.253664 
2576.000000	78.255422 
2575.000000	78.256919 
2574.000000	78.257768 
2573.000000	78.258227 
2572.000000	78.258837 
2571.000000	78.259951 
2570.000000	78.261521 
2569.000000	78.263115 
2568.000000	78.264202 
2567.000000	78.264608 
2566.000000	78.264657 
2565.000000	78.264855 
2564.000000	78.265432 
2563.000000	78.266302 
2562.000000	78.267277 
2561.000000	78.268163 
2560.000000	78.268829 
2559.000000	78.269334 
2558.000000	78.269909 
2557.000000	78.270633 
2556.000000	78.271273 
2555.000000	78.271590 
2554.000000	78.271654 
2553.000000	78.271713 
2552.000000	78.271910 
2551.000000	78.272296 
2550.000000	78.272952 
2549.000000	78.273844 
2548.000000	78.274664 
2547.000000	78.275099 
2546.000000	78.275215 
2545.000000	78.275372 
2544.000000	78.275743 
2543.000000	78.276122 
2542.000000	78.276234 
2541.000000	78.276061 
2540.000000	78.275826 
2539.000000	78.275758 
2538.000000	78.275907 
2537.000000	78.276155 
2536.000000	78.276349 
2535.000000	78.276431 
2534.000000	78.276430 
2533.000000	78.276392 
2532.000000	78.276349 
2531.000000	78.276345 
2530.000000	78.276418 
2529.000000	78.276556 
2528.000000	78.276686 
2527.000000	78.276745 
2526.000000	78.276732 
2525.000000	78.276689 
2524.000000	78.276663 
2523.000000	78.276682 
2522.000000	78.276741 
2521.000000	78.276815 
2520.000000	78.276855 
2519.000000	78.276826 
2518.000000	78.276723 
2517.000000	78.276582 
2516.000000	78.276448 
2515.000000	78.276336 
2514.000000	78.276237 
2513.000000	78.276138 
2512.000000	78.276036 
2511.000000	78.275945 
2510.000000	78.275871 
2509.000000	78.275798 
2508.000000	78.275717 
2507.000000	78.275683 
2506.000000	78.275764 
2505.000000	78.275870 
2504.000000	78.275782 
2503.000000	78.275441 
2502.000000	78.275117 
2501.000000	78.275110 
2500.000000	78.275376 
2499.000000	78.275623 
2498.000000	78.275732 
2497.000000	78.275807 
2496.000000	78.275807 
2495.000000	78.275479 
2494.000000	78.274765 
2493.000000	78.274001 
2492.000000	78.273542 
2491.000000	78.273450 
2490.000000	78.273673 
2489.000000	78.274222 
2488.000000	78.275016 
2487.000000	78.275768 
2486.000000	78.276230 
2485.000000	78.276401 
2484.000000	78.276355 
2483.000000	78.276004 
2482.000000	78.275255 
2481.000000	78.274321 
2480.000000	78.273674 
2479.000000	78.273626 
2478.000000	78.274052 
2477.000000	78.274598 
2476.000000	78.275065 
2475.000000	78.275493 
2474.000000	78.275941 
2473.000000	78.276366 
2472.000000	78.276810 
2471.000000	78.277587 
2470.000000	78.279022 
2469.000000	78.280925 
2468.000000	78.282480 
2467.000000	78.282896 
2466.000000	78.282082 
2465.000000	78.280702 
2464.000000	78.279703 
2463.000000	78.279583 
2462.000000	78.280118 
2461.000000	78.280611 
2460.000000	78.280491 
2459.000000	78.279792 
2458.000000	78.279040 
2457.000000	78.278695 
2456.000000	78.278817 
2455.000000	78.279257 
2454.000000	78.279915 
2453.000000	78.280694 
2452.000000	78.281362 
2451.000000	78.281660 
2450.000000	78.281545 
2449.000000	78.281274 
2448.000000	78.281255 
2447.000000	78.281755 
2446.000000	78.282693 
2445.000000	78.283682 
2444.000000	78.284391 
2443.000000	78.284857 
2442.000000	78.285313 
2441.000000	78.285774 
2440.000000	78.286006 
2439.000000	78.285934 
2438.000000	78.285776 
2437.000000	78.285686 
2436.000000	78.285548 
2435.000000	78.285317 
2434.000000	78.285308 
2433.000000	78.285870 
2432.000000	78.286909 
2431.000000	78.287900 
2430.000000	78.288436 
2429.000000	78.288575 
2428.000000	78.288656 
2427.000000	78.288928 
2426.000000	78.289382 
2425.000000	78.289877 
2424.000000	78.290332 
2423.000000	78.290754 
2422.000000	78.291131 
2421.000000	78.291375 
2420.000000	78.291485 
2419.000000	78.291710 
2418.000000	78.292400 
2417.000000	78.293656 
2416.000000	78.295262 
2415.000000	78.296935 
2414.000000	78.298471 
2413.000000	78.299588 
2412.000000	78.300025 
2411.000000	78.300004 
2410.000000	78.300123 
2409.000000	78.300647 
2408.000000	78.301290 
2407.000000	78.301756 
2406.000000	78.302142 
2405.000000	78.302633 
2404.000000	78.303118 
2403.000000	78.303380 
2402.000000	78.303517 
2401.000000	78.303895 
2400.000000	78.304751 
2399.000000	78.306008 
2398.000000	78.307427 
2397.000000	78.308774 
2396.000000	78.309929 
2395.000000	78.310934 
2394.000000	78.311875 
2393.000000	78.312774 
2392.000000	78.313618 
2391.000000	78.314466 
2390.000000	78.315423 
2389.000000	78.316500 
2388.000000	78.317648 
2387.000000	78.318863 
2386.000000	78.320154 
2385.000000	78.321484 
2384.000000	78.322791 
2383.000000	78.324062 
2382.000000	78.325325 
2381.000000	78.326588 
2380.000000	78.327843 
2379.000000	78.329115 
2378.000000	78.330448 
2377.000000	78.331851 
2376.000000	78.333297 
2375.000000	78.334773 
2374.000000	78.336297 
2373.000000	78.337875 
2372.000000	78.339491 
2371.000000	78.341130 
2370.000000	78.342783 
2369.000000	78.344446 
2368.000000	78.346122 
2367.000000	78.347826 
2366.000000	78.349573 
2365.000000	78.351375 
2364.000000	78.353228 
2363.000000	78.355116 
2362.000000	78.357021 
2361.000000	78.358938 
2360.000000	78.360867 
2359.000000	78.362811 
2358.000000	78.364769 
2357.000000	78.366731 
2356.000000	78.368684 
2355.000000	78.370616 
2354.000000	78.372519 
2353.000000	78.374403 
2352.000000	78.376284 
2351.000000	78.378168 
2350.000000	78.380037 
2349.000000	78.381858 
2348.000000	78.383605 
2347.000000	78.385271 
2346.000000	78.386870 
2345.000000	78.388422 
2344.000000	78.389943 
2343.000000	78.391446 
2342.000000	78.392925 
2341.000000	78.394352 
2340.000000	78.395685 
2339.000000	78.396932 
2338.000000	78.398168 
2337.000000	78.399479 
2336.000000	78.400883 
2335.000000	78.402290 
2334.000000	78.403525 
2333.000000	78.404466 
2332.000000	78.405250 
2331.000000	78.406045 
2330.000000	78.406711 
2329.000000	78.407124 
2328.000000	78.407445 
2327.000000	78.407937 
2326.000000	78.408547 
2325.000000	78.409157 
2324.000000	78.409888 
2323.000000	78.410646 
2322.000000	78.411222 
2321.000000	78.411808 
2320.000000	78.413253 
2319.000000	78.415904 
2318.000000	78.418744 
2317.000000	78.420068 
2316.000000	78.419037 
2315.000000	78.416421 
2314.000000	78.414033 
2313.000000	78.413243 
2312.000000	78.413840 
2311.000000	78.414347 
2310.000000	78.413433 
2309.000000	78.411014 
2308.000000	78.407710 
2307.000000	78.403961 
2306.000000	78.400009 
2305.000000	78.396828 
2304.000000	78.395652 
2303.000000	78.396597 
2302.000000	78.398313 
2301.000000	78.399067 
2300.000000	78.398106 
2299.000000	78.395922 
2298.000000	78.393658 
2297.000000	78.392261 
2296.000000	78.391933 
2295.000000	78.392056 
2294.000000	78.391603 
2293.000000	78.389801 
2292.000000	78.386703 
2291.000000	78.383146 
2290.000000	78.380151 
2289.000000	78.378240 
2288.000000	78.377342 
2287.000000	78.377178 
2286.000000	78.377499 
2285.000000	78.377856 
2284.000000	78.377485 
2283.000000	78.375941 
2282.000000	78.373807 
2281.000000	78.372359 
2280.000000	78.372352 
2279.000000	78.373379 
2278.000000	78.374418 
2277.000000	78.374853 
2276.000000	78.374889 
2275.000000	78.375046 
2274.000000	78.375345 
2273.000000	78.375116 
2272.000000	78.373721 
2271.000000	78.371450 
2270.000000	78.369603 
2269.000000	78.369325 
2268.000000	78.370525 
2267.000000	78.372009 
2266.000000	78.372570 
2265.000000	78.371919 
2264.000000	78.370582 
2263.000000	78.369294 
2262.000000	78.368623 
2261.000000	78.368956 
2260.000000	78.370458 
2259.000000	78.372884 
2258.000000	78.375558 
2257.000000	78.377737 
2256.000000	78.379120 
2255.000000	78.379931 
2254.000000	78.380548 
2253.000000	78.381161 
2252.000000	78.381766 
2251.000000	78.382331 
2250.000000	78.382770 
2249.000000	78.382978 
2248.000000	78.382965 
2247.000000	78.382935 
2246.000000	78.383071 
2245.000000	78.383339 
2244.000000	78.383858 
2243.000000	78.385115 
2242.000000	78.387410 
2241.000000	78.390162 
2240.000000	78.392207 
2239.000000	78.393074 
2238.000000	78.393407 
2237.000000	78.394141 
2236.000000	78.395398 
2235.000000	78.396594 
2234.000000	78.397381 
2233.000000	78.397989 
2232.000000	78.398744 
2231.000000	78.399724 
2230.000000	78.400910 
2229.000000	78.402253 
2228.000000	78.403470 
2227.000000	78.404183 
2226.000000	78.404388 
2225.000000	78.404594 
2224.000000	78.405289 
2223.000000	78.406488 
2222.000000	78.407881 
2221.000000	78.409249 
2220.000000	78.410608 
2219.000000	78.412005 
2218.000000	78.413386 
2217.000000	78.414652 
2216.000000	78.415728 
2215.000000	78.416612 
2214.000000	78.417416 
2213.000000	78.418353 
2212.000000	78.419597 
2211.000000	78.421149 
2210.000000	78.422864 
2209.000000	78.424598 
2208.000000	78.426287 
2207.000000	78.427925 
2206.000000	78.429482 
2205.000000	78.430846 
2204.000000	78.431853 
2203.000000	78.432406 
2202.000000	78.432600 
2201.000000	78.432755 
2200.000000	78.433267 
2199.000000	78.434360 
2198.000000	78.435940 
2197.000000	78.437659 
2196.000000	78.439165 
2195.000000	78.440372 
2194.000000	78.441479 
2193.000000	78.442748 
2192.000000	78.444271 
2191.000000	78.445894 
2190.000000	78.447334 
2189.000000	78.448414 
2188.000000	78.449231 
2187.000000	78.450144 
2186.000000	78.451489 
2185.000000	78.453275 
2184.000000	78.455112 
2183.000000	78.456520 
2182.000000	78.457352 
2181.000000	78.457846 
2180.000000	78.458381 
2179.000000	78.459139 
2178.000000	78.460046 
2177.000000	78.460914 
2176.000000	78.461645 
2175.000000	78.462298 
2174.000000	78.462992 
2173.000000	78.463728 
2172.000000	78.464396 
2171.000000	78.464967 
2170.000000	78.465624 
2169.000000	78.466597 
2168.000000	78.467891 
2167.000000	78.469212 
2166.000000	78.470217 
2165.000000	78.470818 
2164.000000	78.471163 
2163.000000	78.471446 
2162.000000	78.471758 
2161.000000	78.472143 
2160.000000	78.472692 
2159.000000	78.473476 
2158.000000	78.474438 
2157.000000	78.475387 
2156.000000	78.476137 
2155.000000	78.476633 
2154.000000	78.476953 
2153.000000	78.477203 
2152.000000	78.477430 
2151.000000	78.477617 
2150.000000	78.477772 
2149.000000	78.478007 
2148.000000	78.478472 
2147.000000	78.479183 
2146.000000	78.479930 
2145.000000	78.480446 
2144.000000	78.480678 
2143.000000	78.480824 
2142.000000	78.481084 
2141.000000	78.481431 
2140.000000	78.481731 
2139.000000	78.481988 
2138.000000	78.482390 
2137.000000	78.483095 
2136.000000	78.484070 
2135.000000	78.485134 
2134.000000	78.486087 
2133.000000	78.486817 
2132.000000	78.487349 
2131.000000	78.487812 
2130.000000	78.488361 
2129.000000	78.489043 
2128.000000	78.489800 
2127.000000	78.490546 
2126.000000	78.491221 
2125.000000	78.491803 
2124.000000	78.492314 
2123.000000	78.492828 
2122.000000	78.493439 
2121.000000	78.494182 
2120.000000	78.495027 
2119.000000	78.495897 
2118.000000	78.496724 
2117.000000	78.497497 
2116.000000	78.498259 
2115.000000	78.499058 
2114.000000	78.499912 
2113.000000	78.500807 
2112.000000	78.501723 
2111.000000	78.502645 
2110.000000	78.503559 
2109.000000	78.504449 
2108.000000	78.505337 
2107.000000	78.506300 
2106.000000	78.507422 
2105.000000	78.508708 
2104.000000	78.510046 
2103.000000	78.511265 
2102.000000	78.512237 
2101.000000	78.512984 
2100.000000	78.513714 
2099.000000	78.514656 
2098.000000	78.515777 
2097.000000	78.516781 
2096.000000	78.517538 
2095.000000	78.518404 
2094.000000	78.519814 
2093.000000	78.521616 
2092.000000	78.523158 
2091.000000	78.524177 
2090.000000	78.525097 
2089.000000	78.526319 
2088.000000	78.527707 
2087.000000	78.529040 
2086.000000	78.530351 
2085.000000	78.531526 
2084.000000	78.532301 
2083.000000	78.533071 
2082.000000	78.534833 
2081.000000	78.537692 
2080.000000	78.540239 
2079.000000	78.541250 
2078.000000	78.541260 
2077.000000	78.541609 
2076.000000	78.542506 
2075.000000	78.543220 
2074.000000	78.543551 
2073.000000	78.543905 
2072.000000	78.544313 
2071.000000	78.544520 
2070.000000	78.544798 
2069.000000	78.545680 
2068.000000	78.546991 
2067.000000	78.548006 
2066.000000	78.548526 
2065.000000	78.548978 
2064.000000	78.549475 
2063.000000	78.549562 
2062.000000	78.549020 
2061.000000	78.548240 
2060.000000	78.547637 
2059.000000	78.547099 
2058.000000	78.546223 
2057.000000	78.544879 
2056.000000	78.543448 
2055.000000	78.542544 
2054.000000	78.542503 
2053.000000	78.543100 
2052.000000	78.543854 
2051.000000	78.544630 
2050.000000	78.545743 
2049.000000	78.547407 
2048.000000	78.549205 
2047.000000	78.550218 
2046.000000	78.549650 
2045.000000	78.547378 
2044.000000	78.544136 
2043.000000	78.541193 
2042.000000	78.539464 
2041.000000	78.538814 
2040.000000	78.538362 
2039.000000	78.537559 
2038.000000	78.536787 
2037.000000	78.536764 
2036.000000	78.537663 
2035.000000	78.539019 
2034.000000	78.540286 
2033.000000	78.541189 
2032.000000	78.541716 
2031.000000	78.541916 
2030.000000	78.541700 
2029.000000	78.540807 
2028.000000	78.539102 
2027.000000	78.536990 
2026.000000	78.535355 
2025.000000	78.534843 
2024.000000	78.535278 
2023.000000	78.535849 
2022.000000	78.535902 
2021.000000	78.535482 
2020.000000	78.535067 
2019.000000	78.534929 
2018.000000	78.534869 
2017.000000	78.534568 
2016.000000	78.534131 
2015.000000	78.534115 
2014.000000	78.534922 
2013.000000	78.536329 
2012.000000	78.537624 
2011.000000	78.538237 
2010.000000	78.538146 
2009.000000	78.537700 
2008.000000	78.537254 
2007.000000	78.536972 
2006.000000	78.536857 
2005.000000	78.536873 
2004.000000	78.537019 
2003.000000	78.537352 
2002.000000	78.537898 
2001.000000	78.538550 
2000.000000	78.539146 
1999.000000	78.539571 
1998.000000	78.539745 
1997.000000	78.539593 
1996.000000	78.539196 
1995.000000	78.538950 
1994.000000	78.539280 
1993.000000	78.540169 
1992.000000	78.541088 
1991.000000	78.541633 
1990.000000	78.541995 
1989.000000	78.542550 
1988.000000	78.543311 
1987.000000	78.544000 
1986.000000	78.544485 
1985.000000	78.544896 
1984.000000	78.545411 
1983.000000	78.546158 
1982.000000	78.547194 
1981.000000	78.548327 
1980.000000	78.549123 
1979.000000	78.549335 
1978.000000	78.549311 
1977.000000	78.549735 
1976.000000	78.550914 
1975.000000	78.552549 
1974.000000	78.554061 
1973.000000	78.555115 
1972.000000	78.555783 
1971.000000	78.556388 
1970.000000	78.557235 
1969.000000	78.558347 
1968.000000	78.559465 
1967.000000	78.560390 
1966.000000	78.561289 
1965.000000	78.562493 
1964.000000	78.564056 
1963.000000	78.565702 
1962.000000	78.567188 
1961.000000	78.568529 
1960.000000	78.569793 
1959.000000	78.570901 
1958.000000	78.571804 
1957.000000	78.572709 
1956.000000	78.573850 
1955.000000	78.575004 
1954.000000	78.575636 
1953.000000	78.575567 
1952.000000	78.575251 
1951.000000	78.575402 
1950.000000	78.576292 
1949.000000	78.577564 
1948.000000	78.578629 
1947.000000	78.579252 
1946.000000	78.579751 
1945.000000	78.580615 
1944.000000	78.581969 
1943.000000	78.583404 
1942.000000	78.584347 
1941.000000	78.584640 
1940.000000	78.584661 
1939.000000	78.584915 
1938.000000	78.585571 
1937.000000	78.586374 
1936.000000	78.586874 
1935.000000	78.586801 
1934.000000	78.586354 
1933.000000	78.586164 
1932.000000	78.586726 
1931.000000	78.587936 
1930.000000	78.589141 
1929.000000	78.589854 
1928.000000	78.590182 
1927.000000	78.590412 
1926.000000	78.590624 
1925.000000	78.590684 
1924.000000	78.590726 
1923.000000	78.591277 
1922.000000	78.592677 
1921.000000	78.594777 
1920.000000	78.597044 
1919.000000	78.598562 
1918.000000	78.598202 
1917.000000	78.595588 
1916.000000	78.592022 
1915.000000	78.589636 
1914.000000	78.589429 
1913.000000	78.590641 
1912.000000	78.591682 
1911.000000	78.591630 
1910.000000	78.590518 
1909.000000	78.588798 
1908.000000	78.586959 
1907.000000	78.585433 
1906.000000	78.584491 
1905.000000	78.583824 
1904.000000	78.583267 
1903.000000	78.583597 
1902.000000	78.585382 
1901.000000	78.587580 
1900.000000	78.588134 
1899.000000	78.586110 
1898.000000	78.582616 
1897.000000	78.579340 
1896.000000	78.577161 
1895.000000	78.576298 
1894.000000	78.576703 
1893.000000	78.578045 
1892.000000	78.579787 
1891.000000	78.581597 
1890.000000	78.583430 
1889.000000	78.585167 
1888.000000	78.586541 
1887.000000	78.587505 
1886.000000	78.588159 
1885.000000	78.588644 
1884.000000	78.589702 
1883.000000	78.592517 
1882.000000	78.596901 
1881.000000	78.600768 
1880.000000	78.602441 
1879.000000	78.602612 
1878.000000	78.603228 
1877.000000	78.604719 
1876.000000	78.605885 
1875.000000	78.606576 
1874.000000	78.608004 
1873.000000	78.610028 
1872.000000	78.610471 
1871.000000	78.607957 
1870.000000	78.604520 
1869.000000	78.604118 
1868.000000	78.608092 
1867.000000	78.614091 
1866.000000	78.619610 
1865.000000	78.624296 
1864.000000	78.629220 
1863.000000	78.635353 
1862.000000	78.642252 
1861.000000	78.648020 
1860.000000	78.651254 
1859.000000	78.652916 
1858.000000	78.655443 
1857.000000	78.660006 
1856.000000	78.665519 
1855.000000	78.670566 
1854.000000	78.674527 
1853.000000	78.677356 
1852.000000	78.679621 
1851.000000	78.681919 
1850.000000	78.684758 
1849.000000	78.688334 
1848.000000	78.692256 
1847.000000	78.695821 
1846.000000	78.698458 
1845.000000	78.700338 
1844.000000	78.702707 
1843.000000	78.706767 
1842.000000	78.711576 
1841.000000	78.714957 
1840.000000	78.716068 
1839.000000	78.716273 
1838.000000	78.717787 
1837.000000	78.720915 
1836.000000	78.724021 
1835.000000	78.726046 
1834.000000	78.727459 
1833.000000	78.729516 
1832.000000	78.733092 
1831.000000	78.737453 
1830.000000	78.740318 
1829.000000	78.739749 
1828.000000	78.736649 
1827.000000	78.734309 
1826.000000	78.735093 
1825.000000	78.738373 
1824.000000	78.741621 
1823.000000	78.744118 
1822.000000	78.747406 
1821.000000	78.751944 
1820.000000	78.756036 
1819.000000	78.758509 
1818.000000	78.760069 
1817.000000	78.760545 
1816.000000	78.758723 
1815.000000	78.755495 
1814.000000	78.753692 
1813.000000	78.754458 
1812.000000	78.756035 
1811.000000	78.758006 
1810.000000	78.762929 
1809.000000	78.771779 
1808.000000	78.781665 
1807.000000	78.789137 
1806.000000	78.793667 
1805.000000	78.796276 
1804.000000	78.797554 
1803.000000	78.797822 
1802.000000	78.797980 
1801.000000	78.799251 
1800.000000	78.800567 
1799.000000	78.800782 
1798.000000	78.801573 
1797.000000	78.804193 
1796.000000	78.806998 
1795.000000	78.807769 
1794.000000	78.807063 
1793.000000	78.807982 
1792.000000	78.812922 
1791.000000	78.820875 
1790.000000	78.828140 
1789.000000	78.833060 
1788.000000	78.838209 
1787.000000	78.846951 
1786.000000	78.859551 
1785.000000	78.871777 
1784.000000	78.879802 
1783.000000	78.884890 
1782.000000	78.890580 
1781.000000	78.897955 
1780.000000	78.903553 
1779.000000	78.905548 
1778.000000	78.907380 
1777.000000	78.911918 
1776.000000	78.917831 
1775.000000	78.923861 
1774.000000	78.933765 
1773.000000	78.951010 
1772.000000	78.969167 
1771.000000	78.980380 
1770.000000	78.990297 
1769.000000	79.009395 
1768.000000	79.038795 
1767.000000	79.068678 
1766.000000	79.090068 
1765.000000	79.104426 
1764.000000	79.117899 
1763.000000	79.134442 
1762.000000	79.154391 
1761.000000	79.174695 
1760.000000	79.191644 
1759.000000	79.206622 
1758.000000	79.224807 
1757.000000	79.248648 
1756.000000	79.272837 
1755.000000	79.290668 
1754.000000	79.303863 
1753.000000	79.317893 
1752.000000	79.333040 
1751.000000	79.346070 
1750.000000	79.358666 
1749.000000	79.375282 
1748.000000	79.395064 
1747.000000	79.412083 
1746.000000	79.425033 
1745.000000	79.439359 
1744.000000	79.456586 
1743.000000	79.470925 
1742.000000	79.478155 
1741.000000	79.482203 
1740.000000	79.488944 
1739.000000	79.497050 
1738.000000	79.499958 
1737.000000	79.493650 
1736.000000	79.476853 
1735.000000	79.447374 
1734.000000	79.409243 
1733.000000	79.378778 
1732.000000	79.367512 
1731.000000	79.372219 
1730.000000	79.383277 
1729.000000	79.389930 
1728.000000	79.386343 
1727.000000	79.374152 
1726.000000	79.358939 
1725.000000	79.344836 
1724.000000	79.331808 
1723.000000	79.319466 
1722.000000	79.307637 
1721.000000	79.294401 
1720.000000	79.276722 
1719.000000	79.253429 
1718.000000	79.228363 
1717.000000	79.207272 
1716.000000	79.192294 
1715.000000	79.182044 
1714.000000	79.173064 
1713.000000	79.160266 
1712.000000	79.140865 
1711.000000	79.117047 
1710.000000	79.092664 
1709.000000	79.070245 
1708.000000	79.050512 
1707.000000	79.033421 
1706.000000	79.019359 
1705.000000	79.006801 
1704.000000	78.993825 
1703.000000	78.980840 
1702.000000	78.969867 
1701.000000	78.959823 
1700.000000	78.943258 
1699.000000	78.921277 
1698.000000	78.906379 
1697.000000	78.906150 
1696.000000	78.917490 
1695.000000	78.927460 
1694.000000	78.927217 
1693.000000	78.920312 
1692.000000	78.912949 
1691.000000	78.909572 
1690.000000	78.910989 
1689.000000	78.913684 
1688.000000	78.912889 
1687.000000	78.907110 
1686.000000	78.900965 
1685.000000	78.898195 
1684.000000	78.895693 
1683.000000	78.890683 
1682.000000	78.886479 
1681.000000	78.887146 
1680.000000	78.893480 
1679.000000	78.903084 
1678.000000	78.914244 
1677.000000	78.927107 
1676.000000	78.938674 
1675.000000	78.942507 
1674.000000	78.938543 
1673.000000	78.934445 
1672.000000	78.933524 
1671.000000	78.934173 
1670.000000	78.935920 
1669.000000	78.941258 
1668.000000	78.950053 
1667.000000	78.956397 
1666.000000	78.956507 
1665.000000	78.952164 
1664.000000	78.947999 
1663.000000	78.947593 
1662.000000	78.950360 
1661.000000	78.954423 
1660.000000	78.958547 
1659.000000	78.961736 
1658.000000	78.964118 
1657.000000	78.966462 
1656.000000	78.967716 
1655.000000	78.965214 
1654.000000	78.958686 
1653.000000	78.951115 
1652.000000	78.948392 
1651.000000	78.952463 
1650.000000	78.958470 
1649.000000	78.963164 
1648.000000	78.966437 
1647.000000	78.968420 
1646.000000	78.969602 
1645.000000	78.970868 
1644.000000	78.972474 
1643.000000	78.973459 
1642.000000	78.972603 
1641.000000	78.970337 
1640.000000	78.968173 
1639.000000	78.966994 
1638.000000	78.966497 
1637.000000	78.966017 
1636.000000	78.965103 
1635.000000	78.963777 
1634.000000	78.963761 
1633.000000	78.965467 
1632.000000	78.967484 
1631.000000	78.968734 
1630.000000	78.968579 
1629.000000	78.967259 
1628.000000	78.965976 
1627.000000	78.965450 
1626.000000	78.964826 
1625.000000	78.963411 
1624.000000	78.962086 
1623.000000	78.962462 
1622.000000	78.964498 
1621.000000	78.966733 
1620.000000	78.967687 
1619.000000	78.966592 
1618.000000	78.963944 
1617.000000	78.961294 
1616.000000	78.961098 
1615.000000	78.964178 
1614.000000	78.968510 
1613.000000	78.972199 
1612.000000	78.975539 
1611.000000	78.979328 
1610.000000	78.983394 
1609.000000	78.987570 
1608.000000	78.991948 
1607.000000	78.995687 
1606.000000	78.997418 
1605.000000	78.997740 
1604.000000	78.998689 
1603.000000	79.001489 
1602.000000	79.005785 
1601.000000	79.009942 
1600.000000	79.012458 
1599.000000	79.013289 
1598.000000	79.013994 
1597.000000	79.016238 
1596.000000	79.020270 
1595.000000	79.025255 
1594.000000	79.030325 
1593.000000	79.034888 
1592.000000	79.038344 
1591.000000	79.040475 
1590.000000	79.042097 
1589.000000	79.044566 
1588.000000	79.048373 
1587.000000	79.052896 
1586.000000	79.057280 
1585.000000	79.061281 
1584.000000	79.065011 
1583.000000	79.068110 
1582.000000	79.070532 
1581.000000	79.073168 
1580.000000	79.076801 
1579.000000	79.081139 
1578.000000	79.085574 
1577.000000	79.089797 
1576.000000	79.093452 
1575.000000	79.096363 
1574.000000	79.098794 
1573.000000	79.101064 
1572.000000	79.103420 
1571.000000	79.106340 
1570.000000	79.110097 
1569.000000	79.114245 
1568.000000	79.117985 
1567.000000	79.120916 
1566.000000	79.123450 
1565.000000	79.126282 
1564.000000	79.129557 
1563.000000	79.132607 
1562.000000	79.135112 
1561.000000	79.137448 
1560.000000	79.140362 
1559.000000	79.142910 
1558.000000	79.144012 
1557.000000	79.145583 
1556.000000	79.148182 
1555.000000	79.150343 
1554.000000	79.151628 
1553.000000	79.153181 
1552.000000	79.155961 
1551.000000	79.159373 
1550.000000	79.162197 
1549.000000	79.163522 
1548.000000	79.163514 
1547.000000	79.163060 
1546.000000	79.163134 
1545.000000	79.164708 
1544.000000	79.168012 
1543.000000	79.171886 
1542.000000	79.174926 
1541.000000	79.176140 
1540.000000	79.174702 
1539.000000	79.171865 
1538.000000	79.170631 
1537.000000	79.171527 
1536.000000	79.173037 
1535.000000	79.173887 
1534.000000	79.174002 
1533.000000	79.174493 
1532.000000	79.175596 
1531.000000	79.176442 
1530.000000	79.176749 
1529.000000	79.177060 
1528.000000	79.178108 
1527.000000	79.180183 
1526.000000	79.182668 
1525.000000	79.184407 
1524.000000	79.184558 
1523.000000	79.183155 
1522.000000	79.181533 
1521.000000	79.181473 
1520.000000	79.183053 
1519.000000	79.185235 
1518.000000	79.187996 
1517.000000	79.191562 
1516.000000	79.194919 
1515.000000	79.196973 
1514.000000	79.198339 
1513.000000	79.200185 
1512.000000	79.202518 
1511.000000	79.204668 
1510.000000	79.206344 
1509.000000	79.207779 
1508.000000	79.209705 
1507.000000	79.212806 
1506.000000	79.215523 
1505.000000	79.216779 
1504.000000	79.218018 
1503.000000	79.219940 
1502.000000	79.222458 
1501.000000	79.225550 
1500.000000	79.229231 
1499.000000	79.233892 
1498.000000	79.240050 
1497.000000	79.246645 
1496.000000	79.250434 
1495.000000	79.249751 
1494.000000	79.246401 
1493.000000	79.243255 
1492.000000	79.242027 
1491.000000	79.243536 
1490.000000	79.247664 
1489.000000	79.252406 
1488.000000	79.255328 
1487.000000	79.257143 
1486.000000	79.260017 
1485.000000	79.263973 
1484.000000	79.267660 
1483.000000	79.270126 
1482.000000	79.271717 
1481.000000	79.273123 
1480.000000	79.274939 
1479.000000	79.278095 
1478.000000	79.283150 
1477.000000	79.288398 
1476.000000	79.290792 
1475.000000	79.289776 
1474.000000	79.288789 
1473.000000	79.292445 
1472.000000	79.299956 
1471.000000	79.306483 
1470.000000	79.311362 
1469.000000	79.317151 
1468.000000	79.324217 
1467.000000	79.331057 
1466.000000	79.337591 
1465.000000	79.345813 
1464.000000	79.354691 
1463.000000	79.359920 
1462.000000	79.360779 
1461.000000	79.360707 
1460.000000	79.363399 
1459.000000	79.369995 
1458.000000	79.378305 
1457.000000	79.380922 
1456.000000	79.370543 
1455.000000	79.351363 
1454.000000	79.334675 
1453.000000	79.326393 
1452.000000	79.324083 
1451.000000	79.322650 
1450.000000	79.322162 
1449.000000	79.326561 
1448.000000	79.335049 
1447.000000	79.340843 
1446.000000	79.340635 
1445.000000	79.339506 
1444.000000	79.341144 
1443.000000	79.342538 
1442.000000	79.339933 
1441.000000	79.334231 
1440.000000	79.329422 
1439.000000	79.328704 
1438.000000	79.333626 
1437.000000	79.342218 
1436.000000	79.347238 
1435.000000	79.343128 
1434.000000	79.334587 
1433.000000	79.329607 
1432.000000	79.330393 
1431.000000	79.333164 
1430.000000	79.332392 
1429.000000	79.324677 
1428.000000	79.310979 
1427.000000	79.296456 
1426.000000	79.285745 
1425.000000	79.278832 
1424.000000	79.270164 
1423.000000	79.254941 
1422.000000	79.235260 
1421.000000	79.216357 
1420.000000	79.199280 
1419.000000	79.180174 
1418.000000	79.156406 
1417.000000	79.129610 
1416.000000	79.102856 
1415.000000	79.076667 
1414.000000	79.049264 
1413.000000	79.020294 
1412.000000	78.992905 
1411.000000	78.971373 
1410.000000	78.956506 
1409.000000	78.945326 
1408.000000	78.936131 
1407.000000	78.931146 
1406.000000	78.933634 
1405.000000	78.945656 
1404.000000	78.965841 
1403.000000	78.988696 
1402.000000	79.009097 
1401.000000	79.026283 
1400.000000	79.042529 
1399.000000	79.057516 
1398.000000	79.063054 
1397.000000	79.047236 
1396.000000	79.007975 
1395.000000	78.965335 
1394.000000	78.952644 
1393.000000	78.984917 
1392.000000	79.047148 
1391.000000	79.112719 
1390.000000	79.163585 
1389.000000	79.196207 
1388.000000	79.215978 
1387.000000	79.229131 
1386.000000	79.238874 
1385.000000	79.247586 
1384.000000	79.257889 
1383.000000	79.271066 
1382.000000	79.287804 
1381.000000	79.309044 
1380.000000	79.333718 
1379.000000	79.357285 
1378.000000	79.376124 
1377.000000	79.392435 
1376.000000	79.411981 
1375.000000	79.437176 
1374.000000	79.463825 
1373.000000	79.484921 
1372.000000	79.496984 
1371.000000	79.502730 
1370.000000	79.508922 
1369.000000	79.522099 
1368.000000	79.543700 
1367.000000	79.567894 
1366.000000	79.586294 
1365.000000	79.594665 
1364.000000	79.594646 
1363.000000	79.592263 
1362.000000	79.593774 
1361.000000	79.600304 
1360.000000	79.608539 
1359.000000	79.616225 
1358.000000	79.624576 
1357.000000	79.635557 
1356.000000	79.647940 
1355.000000	79.657662 
1354.000000	79.662468 
1353.000000	79.663868 
1352.000000	79.663122 
1351.000000	79.659050 
1350.000000	79.652007 
1349.000000	79.645411 
1348.000000	79.641646 
1347.000000	79.640091 
1346.000000	79.639394 
1345.000000	79.638512 
1344.000000	79.635123 
1343.000000	79.626317 
1342.000000	79.612384 
1341.000000	79.598161 
1340.000000	79.589203 
1339.000000	79.586337 
1338.000000	79.584640 
1337.000000	79.578396 
1336.000000	79.565978 
1335.000000	79.550789 
1334.000000	79.539148 
1333.000000	79.535513 
1332.000000	79.538236 
1331.000000	79.541216 
1330.000000	79.540154 
1329.000000	79.535765 
1328.000000	79.531154 
1327.000000	79.528529 
1326.000000	79.528309 
1325.000000	79.528540 
1324.000000	79.525554 
1323.000000	79.517064 
1322.000000	79.505089 
1321.000000	79.494458 
1320.000000	79.488082 
1319.000000	79.485080 
1318.000000	79.483435 
1317.000000	79.482736 
1316.000000	79.483126 
1315.000000	79.483177 
1314.000000	79.480686 
1313.000000	79.475322 
1312.000000	79.469094 
1311.000000	79.464092 
1310.000000	79.460516 
1309.000000	79.457007 
1308.000000	79.452466 
1307.000000	79.447473 
1306.000000	79.443776 
1305.000000	79.441977 
1304.000000	79.440421 
1303.000000	79.436732 
1302.000000	79.430279 
1301.000000	79.422337 
1300.000000	79.413952 
1299.000000	79.404808 
1298.000000	79.394574 
1297.000000	79.384551 
1296.000000	79.376968 
1295.000000	79.372623 
1294.000000	79.369454 
1293.000000	79.363885 
1292.000000	79.353941 
1291.000000	79.340971 
1290.000000	79.327928 
1289.000000	79.316104 
1288.000000	79.304456 
1287.000000	79.292035 
1286.000000	79.279500 
1285.000000	79.267841 
1284.000000	79.257370 
1283.000000	79.248648 
1282.000000	79.242487 
1281.000000	79.237750 
1280.000000	79.230755 
1279.000000	79.218525 
1278.000000	79.201972 
1277.000000	79.184910 
1276.000000	79.170469 
1275.000000	79.159340 
1274.000000	79.150201 
1273.000000	79.140168 
1272.000000	79.125742 
1271.000000	79.105328 
1270.000000	79.081135 
1269.000000	79.057774 
1268.000000	79.039019 
1267.000000	79.025814 
1266.000000	79.015673 
1265.000000	79.003299 
1264.000000	78.983508 
1263.000000	78.955295 
1262.000000	78.922723 
1261.000000	78.891123 
1260.000000	78.863390 
1259.000000	78.840040 
1258.000000	78.820559 
1257.000000	78.803659 
1256.000000	78.787731 
1255.000000	78.772234 
1254.000000	78.757410 
1253.000000	78.742106 
1252.000000	78.724509 
1251.000000	78.706720 
1250.000000	78.695679 
1249.000000	78.696457 
1248.000000	78.706221 
1247.000000	78.716732 
1246.000000	78.720723 
1245.000000	78.714032 
1244.000000	78.695937 
1243.000000	78.673235 
1242.000000	78.661433 
1241.000000	78.673871 
1240.000000	78.707796 
1239.000000	78.745284 
1238.000000	78.769710 
1237.000000	78.777576 
1236.000000	78.773904 
1235.000000	78.763563 
1234.000000	78.750888 
1233.000000	78.741698 
1232.000000	78.738806 
1231.000000	78.737142 
1230.000000	78.728575 
1229.000000	78.711247 
1228.000000	78.690334 
1227.000000	78.670107 
1226.000000	78.648857 
1225.000000	78.622191 
1224.000000	78.588934 
1223.000000	78.553643 
1222.000000	78.525373 
1221.000000	78.513620 
1220.000000	78.521907 
1219.000000	78.542513 
1218.000000	78.558425 
1217.000000	78.553392 
1216.000000	78.521650 
1215.000000	78.469559 
1214.000000	78.409465 
1213.000000	78.351477 
1212.000000	78.299425 
1211.000000	78.252231 
1210.000000	78.207101 
1209.000000	78.161601 
1208.000000	78.114694 
1207.000000	78.067394 
1206.000000	78.021987 
1205.000000	77.979213 
1204.000000	77.935959 
1203.000000	77.886841 
1202.000000	77.828756 
1201.000000	77.763649 
1200.000000	77.696597 
1199.000000	77.631455 
1198.000000	77.568502 
1197.000000	77.506074 
1196.000000	77.443604 
1195.000000	77.382195 
1194.000000	77.322563 
1193.000000	77.263911 
1192.000000	77.205747 
1191.000000	77.149714 
1190.000000	77.098247 
1189.000000	77.051902 
1188.000000	77.008892 
1187.000000	76.966487 
1186.000000	76.921816 
1185.000000	76.872456 
1184.000000	76.818277 
1183.000000	76.762653 
1182.000000	76.710043 
1181.000000	76.661683 
1180.000000	76.614403 
1179.000000	76.563369 
1178.000000	76.504729 
1177.000000	76.436292 
1176.000000	76.358320 
1175.000000	76.274860 
1174.000000	76.192444 
1173.000000	76.115624 
1172.000000	76.044276 
1171.000000	75.975547 
1170.000000	75.907032 
1169.000000	75.837730 
1168.000000	75.767780 
1167.000000	75.699036 
1166.000000	75.635774 
1165.000000	75.584132 
1164.000000	75.550704 
1163.000000	75.540927 
1162.000000	75.556866 
1161.000000	75.594624 
1160.000000	75.643161 
1159.000000	75.686991 
1158.000000	75.712789 
1157.000000	75.714937 
1156.000000	75.695096 
1155.000000	75.657775 
1154.000000	75.607459 
1153.000000	75.548833 
1152.000000	75.486828 
1151.000000	75.424612 
1150.000000	75.362401 
1149.000000	75.299725 
1148.000000	75.238094 
1147.000000	75.179495 
1146.000000	75.122521 
1145.000000	75.062419 
1144.000000	74.995909 
1143.000000	74.924596 
1142.000000	74.852931 
1141.000000	74.783703 
1140.000000	74.715876 
1139.000000	74.645861 
1138.000000	74.570827 
1137.000000	74.491823 
1136.000000	74.413209 
1135.000000	74.337571 
1134.000000	74.262101 
1133.000000	74.182397 
1132.000000	74.099086 
1131.000000	74.017356 
1130.000000	73.939703 
1129.000000	73.862593 
1128.000000	73.781199 
1127.000000	73.694354 
1126.000000	73.604178 
1125.000000	73.513927 
1124.000000	73.426803 
1123.000000	73.343479 
1122.000000	73.260299 
1121.000000	73.173876 
1120.000000	73.087894 
1119.000000	73.010204 
1118.000000	72.941657 
1117.000000	72.873110 
1116.000000	72.795838 
1115.000000	72.710107 
1114.000000	72.621280 
1113.000000	72.532983 
1112.000000	72.447563 
1111.000000	72.367974 
1110.000000	72.294376 
1109.000000	72.222291 
1108.000000	72.147811 
1107.000000	72.072215 
1106.000000	71.998839 
1105.000000	71.928677 
1104.000000	71.861844 
1103.000000	71.799711 
1102.000000	71.742683 
1101.000000	71.688730 
1100.000000	71.637104 
1099.000000	71.589300 
1098.000000	71.544604 
1097.000000	71.498124 
1096.000000	71.445718 
1095.000000	71.386855 
1094.000000	71.318837 
1093.000000	71.232771 
1092.000000	71.121296 
1091.000000	70.989096 
1090.000000	70.851137 
1089.000000	70.719736 
1088.000000	70.596229 
1087.000000	70.475167 
1086.000000	70.352996 
1085.000000	70.231549 
1084.000000	70.114720 
1083.000000	70.003106 
1082.000000	69.893057 
1081.000000	69.781848 
1080.000000	69.672087 
1079.000000	69.568459 
1078.000000	69.471847 
1077.000000	69.380940 
1076.000000	69.298357 
1075.000000	69.229210 
1074.000000	69.173099 
1073.000000	69.122755 
1072.000000	69.069827 
1071.000000	69.004668 
1070.000000	68.911516 
1069.000000	68.776793 
1068.000000	68.609768 
1067.000000	68.447692 
1066.000000	68.328997 
1065.000000	68.262575 
1064.000000	68.227479 
1063.000000	68.195434 
1062.000000	68.146959 
1061.000000	68.072861 
1060.000000	67.975125 
1059.000000	67.870571 
1058.000000	67.784578 
1057.000000	67.733199 
1056.000000	67.710899 
1055.000000	67.695849 
1054.000000	67.666107 
1053.000000	67.611661 
1052.000000	67.533492 
1051.000000	67.433866 
1050.000000	67.310767 
1049.000000	67.163802 
1048.000000	67.001779 
1047.000000	66.838303 
1046.000000	66.680555 
1045.000000	66.527860 
1044.000000	66.380418 
1043.000000	66.242183 
1042.000000	66.113149 
1041.000000	65.985145 
1040.000000	65.850203 
1039.000000	65.711656 
1038.000000	65.585132 
1037.000000	65.489073 
1036.000000	65.432401 
1035.000000	65.407393 
1034.000000	65.394912 
1033.000000	65.379317 
1032.000000	65.355335 
1031.000000	65.319289 
1030.000000	65.264664 
1029.000000	65.196647 
1028.000000	65.142646 
1027.000000	65.131562 
1026.000000	65.162237 
1025.000000	65.205098 
1024.000000	65.235705 
1023.000000	65.253426 
1022.000000	65.266012 
1021.000000	65.271827 
1020.000000	65.264292 
1019.000000	65.243705 
1018.000000	65.217446 
1017.000000	65.194342 
1016.000000	65.182704 
1015.000000	65.187124 
1014.000000	65.202776 
1013.000000	65.218382 
1012.000000	65.227673 
1011.000000	65.232929 
1010.000000	65.237119 
1009.000000	65.240456 
1008.000000	65.246327 
1007.000000	65.261993 
1006.000000	65.289366 
1005.000000	65.321288 
1004.000000	65.350397 
1003.000000	65.376607 
1002.000000	65.403702 
1001.000000	65.434028 
1000.000000	65.468882 
999.000000	 65.509164 
998.000000	 65.553338 
997.000000	 65.598615 
996.000000	 65.645076 
995.000000	 65.694646 
994.000000	 65.745847 
993.000000	 65.794333 
992.000000	 65.839198 
991.000000	 65.884424 
990.000000	 65.933620 
989.000000	 65.987283 
988.000000	 66.045183 
987.000000	 66.107729 
986.000000	 66.175523 
985.000000	 66.250684 
984.000000	 66.336603 
983.000000	 66.433300 
982.000000	 66.536932 
981.000000	 66.646942 
980.000000	 66.768325 
979.000000	 66.902363 
978.000000	 67.040807 
977.000000	 67.176088 
976.000000	 67.312160 
975.000000	 67.457214 
974.000000	 67.610287 
973.000000	 67.763554 
972.000000	 67.914196 
971.000000	 68.065354 
970.000000	 68.218369 
969.000000	 68.372670 
968.000000	 68.530844 
967.000000	 68.695420 
966.000000	 68.862776 
965.000000	 69.028065 
964.000000	 69.193470 
963.000000	 69.363099 
962.000000	 69.532102 
961.000000	 69.690190 
960.000000	 69.835007 
959.000000	 69.973310 
958.000000	 70.109163 
957.000000	 70.239068 
956.000000	 70.359623 
955.000000	 70.472637 
954.000000	 70.580852 
953.000000	 70.684049 
952.000000	 70.781010 
951.000000	 70.871392 
950.000000	 70.955223 
949.000000	 71.033700 
948.000000	 71.109376 
947.000000	 71.182182 
946.000000	 71.247695 
945.000000	 71.303696 
944.000000	 71.355346 
943.000000	 71.408074 
942.000000	 71.458255 
941.000000	 71.498478 
940.000000	 71.530285 
939.000000	 71.563629 
938.000000	 71.603527 
937.000000	 71.645130 
936.000000	 71.683533 
935.000000	 71.720960 
934.000000	 71.761474 
933.000000	 71.804694 
932.000000	 71.847921 
931.000000	 71.889983 
930.000000	 71.930651 
929.000000	 71.970398 
928.000000	 72.012485 
927.000000	 72.060812 
926.000000	 72.113365 
925.000000	 72.161871 
924.000000	 72.200537 
923.000000	 72.231798 
922.000000	 72.260931 
921.000000	 72.288117 
920.000000	 72.309250 
919.000000	 72.323089 
918.000000	 72.334619 
917.000000	 72.351326 
916.000000	 72.377615 
915.000000	 72.412893 
914.000000	 72.454104 
913.000000	 72.499444 
912.000000	 72.548911 
911.000000	 72.601753 
910.000000	 72.656301 
909.000000	 72.714085 
908.000000	 72.781917 
907.000000	 72.867361 
906.000000	 72.972747 
905.000000	 73.093976 
904.000000	 73.222880 
903.000000	 73.350653 
902.000000	 73.473630 
901.000000	 73.597907 
900.000000	 73.734198 
899.000000	 73.886119 
898.000000	 74.047060 
897.000000	 74.209655 
896.000000	 74.371630 
895.000000	 74.529067 
894.000000	 74.672182 
893.000000	 74.795445 
892.000000	 74.907733 
891.000000	 75.025559 
890.000000	 75.157932 
889.000000	 75.302095 
888.000000	 75.450118 
887.000000	 75.593141 
886.000000	 75.722413 
885.000000	 75.834098 
884.000000	 75.932980 
883.000000	 76.026250 
882.000000	 76.114616 
881.000000	 76.194960 
880.000000	 76.269590 
879.000000	 76.344403 
878.000000	 76.417432 
877.000000	 76.478800 
876.000000	 76.526065 
875.000000	 76.571304 
874.000000	 76.626585 
873.000000	 76.688621 
872.000000	 76.746138 
871.000000	 76.798953 
870.000000	 76.860580 
869.000000	 76.941678 
868.000000	 77.038876 
867.000000	 77.142286 
866.000000	 77.247627 
865.000000	 77.356335 
864.000000	 77.467225 
863.000000	 77.573599 
862.000000	 77.668355 
861.000000	 77.748439 
860.000000	 77.815151 
859.000000	 77.874052 
858.000000	 77.933760 
857.000000	 77.999779 
856.000000	 78.068848 
855.000000	 78.133488 
854.000000	 78.192396 
853.000000	 78.251012 
852.000000	 78.310285 
851.000000	 78.361618 
850.000000	 78.398042 
849.000000	 78.425847 
848.000000	 78.458545 
847.000000	 78.500339 
846.000000	 78.540620 
845.000000	 78.564796 
844.000000	 78.566676 
843.000000	 78.550634 
842.000000	 78.526188 
841.000000	 78.501986 
840.000000	 78.481521 
839.000000	 78.460765 
838.000000	 78.430280 
837.000000	 78.383567 
836.000000	 78.326129 
835.000000	 78.274788 
834.000000	 78.243607 
833.000000	 78.228918 
832.000000	 78.211658 
831.000000	 78.177298 
830.000000	 78.131986 
829.000000	 78.096723 
828.000000	 78.087725 
827.000000	 78.105701 
826.000000	 78.140568 
825.000000	 78.178579 
824.000000	 78.204414 
823.000000	 78.206203 
822.000000	 78.185312 
821.000000	 78.156200 
820.000000	 78.131208 
819.000000	 78.107882 
818.000000	 78.073505 
817.000000	 78.018976 
816.000000	 77.945519 
815.000000	 77.860124 
814.000000	 77.767220 
813.000000	 77.663437 
812.000000	 77.537070 
811.000000	 77.371994 
810.000000	 77.155097 
809.000000	 76.883632 
808.000000	 76.567367 
807.000000	 76.222962 
806.000000	 75.864209 
805.000000	 75.497623 
804.000000	 75.128370 
803.000000	 74.767951 
802.000000	 74.432779 
801.000000	 74.137779 
800.000000	 73.895770 
799.000000	 73.720077 
798.000000	 73.620450 
797.000000	 73.594957 
796.000000	 73.628968 
795.000000	 73.702287 
794.000000	 73.796271 
793.000000	 73.896798 
792.000000	 73.995132 
791.000000	 74.087841 
790.000000	 74.173380 
789.000000	 74.245270 
788.000000	 74.288606 
787.000000	 74.286791 
786.000000	 74.234167 
785.000000	 74.140630 
784.000000	 74.022483 
783.000000	 73.890709 
782.000000	 73.750455 
781.000000	 73.611180 
780.000000	 73.493656 
779.000000	 73.423583 
778.000000	 73.417110 
777.000000	 73.472737 
776.000000	 73.575817 
775.000000	 73.709219 
774.000000	 73.861292 
773.000000	 74.026727 
772.000000	 74.200808 
771.000000	 74.373215 
770.000000	 74.529575 
769.000000	 74.660658 
768.000000	 74.768698 
767.000000	 74.863371 
766.000000	 74.952292 
765.000000	 75.036164 
764.000000	 75.112023 
763.000000	 75.178928 
762.000000	 75.239279 
761.000000	 75.295073 
760.000000	 75.344882 
759.000000	 75.386707 
758.000000	 75.423404 
757.000000	 75.462379 
756.000000	 75.508283 
755.000000	 75.557761 
754.000000	 75.603732 
753.000000	 75.644752 
752.000000	 75.688791 
751.000000	 75.747581 
750.000000	 75.827440 
749.000000	 75.923981 
748.000000	 76.024366 
747.000000	 76.116027 
746.000000	 76.195208 
745.000000	 76.267439 
744.000000	 76.340570 
743.000000	 76.419880 
742.000000	 76.509331 
741.000000	 76.611286 
740.000000	 76.720645 
739.000000	 76.824116 
738.000000	 76.911825 
737.000000	 76.987792 
736.000000	 77.063089 
735.000000	 77.139678 
734.000000	 77.208296 
733.000000	 77.263028 
732.000000	 77.310609 
731.000000	 77.362362 
730.000000	 77.422650 
729.000000	 77.488882 
728.000000	 77.555082 
727.000000	 77.612186 
726.000000	 77.653009 
725.000000	 77.680683 
724.000000	 77.708259 
723.000000	 77.746215 
722.000000	 77.792718 
721.000000	 77.838924 
720.000000	 77.880309 
719.000000	 77.918705 
718.000000	 77.955195 
717.000000	 77.986093 
716.000000	 78.007687 
715.000000	 78.021410 
714.000000	 78.032111 
713.000000	 78.042909 
712.000000	 78.052336 
711.000000	 78.055257 
710.000000	 78.046285 
709.000000	 78.024651 
708.000000	 77.994930 
707.000000	 77.963808 
706.000000	 77.936383 
705.000000	 77.910684 
704.000000	 77.873465 
703.000000	 77.806331 
702.000000	 77.697157 
701.000000	 77.546604 
700.000000	 77.365352 
699.000000	 77.163142 
698.000000	 76.946661 
697.000000	 76.730385 
696.000000	 76.546480 
695.000000	 76.439251 
694.000000	 76.438035 
693.000000	 76.534459 
692.000000	 76.687459 
691.000000	 76.849757 
690.000000	 76.996621 
689.000000	 77.128205 
688.000000	 77.249648 
687.000000	 77.359668 
686.000000	 77.454496 
685.000000	 77.536358 
684.000000	 77.613872 
683.000000	 77.693796 
682.000000	 77.777492 
681.000000	 77.863853 
680.000000	 77.951426 
679.000000	 78.035047 
678.000000	 78.105946 
677.000000	 78.164097 
676.000000	 78.219172 
675.000000	 78.276695 
674.000000	 78.332390 
673.000000	 78.378579 
672.000000	 78.405657 
671.000000	 78.398028 
670.000000	 78.342728 
669.000000	 78.265490 
668.000000	 78.280821 
667.000000	 78.442382 
666.000000	 78.642074 
665.000000	 78.810773 
664.000000	 78.953285 
663.000000	 79.072486 
662.000000	 79.163516 
661.000000	 79.228661 
660.000000	 79.279513 
659.000000	 79.327818 
658.000000	 79.384799 
657.000000	 79.457683 
656.000000	 79.531598 
655.000000	 79.577484 
654.000000	 79.594003 
653.000000	 79.612122 
652.000000	 79.644477 
651.000000	 79.668931 
650.000000	 79.675940 

