PE IR                   SPECTRUM    ASCII       PEDS        1.60        
  -1
~SP.SP
22/12/06
16:41:22.00
23/01/09
15:13:48.00
Administrator

650.000000
4









FRONTIER FT-IR,CPU32 MAIN 00.09.9951 07-SEPTEMBER-2011 11:49:41
MIR TGS
MIR
OPTKBR
90694
0.200000

4.000000
STRONG
RATIO
SPECTRUM
MAGNITUDE
MIRACLE ATR
DOUBLE

COMBINED


0


#HDR
-1
-1
#GR
CM-1
%T
0.00002384185791015625
0.0
4000.000000
-1.000000
3351
8
79.979109
66.388264
#DATA
4000.000000	79.970190 
3999.000000	79.968885 
3998.000000	79.966409 
3997.000000	79.963589 
3996.000000	79.961307 
3995.000000	79.959813 
3994.000000	79.958745 
3993.000000	79.957473 
3992.000000	79.955523 
3991.000000	79.952995 
3990.000000	79.950624 
3989.000000	79.949250 
3988.000000	79.949147 
3987.000000	79.949905 
3986.000000	79.950788 
3985.000000	79.951217 
3984.000000	79.950893 
3983.000000	79.949696 
3982.000000	79.947736 
3981.000000	79.945370 
3980.000000	79.943069 
3979.000000	79.941127 
3978.000000	79.939451 
3977.000000	79.937682 
3976.000000	79.935605 
3975.000000	79.933548 
3974.000000	79.932297 
3973.000000	79.932390 
3972.000000	79.933402 
3971.000000	79.934164 
3970.000000	79.933752 
3969.000000	79.932139 
3968.000000	79.929881 
3967.000000	79.927449 
3966.000000	79.924984 
3965.000000	79.922559 
3964.000000	79.920408 
3963.000000	79.918795 
3962.000000	79.917743 
3961.000000	79.916945 
3960.000000	79.915967 
3959.000000	79.914690 
3958.000000	79.913473 
3957.000000	79.912716 
3956.000000	79.912298 
3955.000000	79.911553 
3954.000000	79.909868 
3953.000000	79.907083 
3952.000000	79.903542 
3951.000000	79.899982 
3950.000000	79.897196 
3949.000000	79.895494 
3948.000000	79.894438 
3947.000000	79.893352 
3946.000000	79.892075 
3945.000000	79.891142 
3944.000000	79.891194 
3943.000000	79.892156 
3942.000000	79.892923 
3941.000000	79.892178 
3940.000000	79.889392 
3939.000000	79.885110 
3938.000000	79.880518 
3937.000000	79.876525 
3936.000000	79.873366 
3935.000000	79.871044 
3934.000000	79.869878 
3933.000000	79.870023 
3932.000000	79.870632 
3931.000000	79.870149 
3930.000000	79.867862 
3929.000000	79.864678 
3928.000000	79.861998 
3927.000000	79.860055 
3926.000000	79.858033 
3925.000000	79.855553 
3924.000000	79.853070 
3923.000000	79.850681 
3922.000000	79.847876 
3921.000000	79.844799 
3920.000000	79.842543 
3919.000000	79.841808 
3918.000000	79.842131 
3917.000000	79.842743 
3916.000000	79.843329 
3915.000000	79.843510 
3914.000000	79.842542 
3913.000000	79.840285 
3912.000000	79.837253 
3911.000000	79.833754 
3910.000000	79.829592 
3909.000000	79.824942 
3908.000000	79.820875 
3907.000000	79.818288 
3906.000000	79.817044 
3905.000000	79.816139 
3904.000000	79.814868 
3903.000000	79.813231 
3902.000000	79.811205 
3901.000000	79.808362 
3900.000000	79.804669 
3899.000000	79.800935 
3898.000000	79.797993 
3897.000000	79.796100 
3896.000000	79.794947 
3895.000000	79.794335 
3894.000000	79.793937 
3893.000000	79.793135 
3892.000000	79.791630 
3891.000000	79.789752 
3890.000000	79.787969 
3889.000000	79.786353 
3888.000000	79.784784 
3887.000000	79.783239 
3886.000000	79.781750 
3885.000000	79.780302 
3884.000000	79.778880 
3883.000000	79.777488 
3882.000000	79.776111 
3881.000000	79.774731 
3880.000000	79.773329 
3879.000000	79.771887 
3878.000000	79.770394 
3877.000000	79.768849 
3876.000000	79.767273 
3875.000000	79.765698 
3874.000000	79.764166 
3873.000000	79.762706 
3872.000000	79.761330 
3871.000000	79.760039 
3870.000000	79.758838 
3869.000000	79.757726 
3868.000000	79.756685 
3867.000000	79.755681 
3866.000000	79.754703 
3865.000000	79.753764 
3864.000000	79.752873 
3863.000000	79.752012 
3862.000000	79.751160 
3861.000000	79.750315 
3860.000000	79.749494 
3859.000000	79.748706 
3858.000000	79.747949 
3857.000000	79.747209 
3856.000000	79.746456 
3855.000000	79.745644 
3854.000000	79.744740 
3853.000000	79.743763 
3852.000000	79.742769 
3851.000000	79.741791 
3850.000000	79.740817 
3849.000000	79.739825 
3848.000000	79.738795 
3847.000000	79.737719 
3846.000000	79.736612 
3845.000000	79.735496 
3844.000000	79.734392 
3843.000000	79.733301 
3842.000000	79.732220 
3841.000000	79.731153 
3840.000000	79.730110 
3839.000000	79.729108 
3838.000000	79.728168 
3837.000000	79.727324 
3836.000000	79.726601 
3835.000000	79.725996 
3834.000000	79.725478 
3833.000000	79.724998 
3832.000000	79.724511 
3831.000000	79.723995 
3830.000000	79.723446 
3829.000000	79.722867 
3828.000000	79.722260 
3827.000000	79.721618 
3826.000000	79.720939 
3825.000000	79.720231 
3824.000000	79.719497 
3823.000000	79.718725 
3822.000000	79.717898 
3821.000000	79.717027 
3820.000000	79.716146 
3819.000000	79.715274 
3818.000000	79.714401 
3817.000000	79.713508 
3816.000000	79.712595 
3815.000000	79.711674 
3814.000000	79.710750 
3813.000000	79.709823 
3812.000000	79.708910 
3811.000000	79.708032 
3810.000000	79.707189 
3809.000000	79.706358 
3808.000000	79.705524 
3807.000000	79.704699 
3806.000000	79.703917 
3805.000000	79.703197 
3804.000000	79.702528 
3803.000000	79.701875 
3802.000000	79.701213 
3801.000000	79.700540 
3800.000000	79.699869 
3799.000000	79.699194 
3798.000000	79.698507 
3797.000000	79.697816 
3796.000000	79.697124 
3795.000000	79.696407 
3794.000000	79.695584 
3793.000000	79.694553 
3792.000000	79.693348 
3791.000000	79.692061 
3790.000000	79.690672 
3789.000000	79.689123 
3788.000000	79.687467 
3787.000000	79.685808 
3786.000000	79.684175 
3785.000000	79.682570 
3784.000000	79.681057 
3783.000000	79.679608 
3782.000000	79.678015 
3781.000000	79.676147 
3780.000000	79.674200 
3779.000000	79.672573 
3778.000000	79.671426 
3777.000000	79.670406 
3776.000000	79.669063 
3775.000000	79.667411 
3774.000000	79.665754 
3773.000000	79.664238 
3772.000000	79.662697 
3771.000000	79.660909 
3770.000000	79.658930 
3769.000000	79.657080 
3768.000000	79.655419 
3767.000000	79.653488 
3766.000000	79.650958 
3765.000000	79.648229 
3764.000000	79.646131 
3763.000000	79.644836 
3762.000000	79.643504 
3761.000000	79.641588 
3760.000000	79.639382 
3759.000000	79.636987 
3758.000000	79.634098 
3757.000000	79.631209 
3756.000000	79.629398 
3755.000000	79.628213 
3754.000000	79.626220 
3753.000000	79.623483 
3752.000000	79.620876 
3751.000000	79.616169 
3750.000000	79.606572 
3749.000000	79.596185 
3748.000000	79.591623 
3747.000000	79.592577 
3746.000000	79.593529 
3745.000000	79.589861 
3744.000000	79.584877 
3743.000000	79.585445 
3742.000000	79.585549 
3741.000000	79.577382 
3740.000000	79.566109 
3739.000000	79.558607 
3738.000000	79.553197 
3737.000000	79.545576 
3736.000000	79.540946 
3735.000000	79.547346 
3734.000000	79.559800 
3733.000000	79.564701 
3732.000000	79.559382 
3731.000000	79.553270 
3730.000000	79.551336 
3729.000000	79.547728 
3728.000000	79.536571 
3727.000000	79.521052 
3726.000000	79.509968 
3725.000000	79.506685 
3724.000000	79.505967 
3723.000000	79.502656 
3722.000000	79.496031 
3721.000000	79.488256 
3720.000000	79.480750 
3719.000000	79.471717 
3718.000000	79.458825 
3717.000000	79.443466 
3716.000000	79.429483 
3715.000000	79.418089 
3714.000000	79.408342 
3713.000000	79.398863 
3712.000000	79.387053 
3711.000000	79.371588 
3710.000000	79.354584 
3709.000000	79.337743 
3708.000000	79.320665 
3707.000000	79.303340 
3706.000000	79.286655 
3705.000000	79.270586 
3704.000000	79.254348 
3703.000000	79.237447 
3702.000000	79.219788 
3701.000000	79.202450 
3700.000000	79.187194 
3699.000000	79.173002 
3698.000000	79.157418 
3697.000000	79.141185 
3696.000000	79.126732 
3695.000000	79.112551 
3694.000000	79.094353 
3693.000000	79.072416 
3692.000000	79.051393 
3691.000000	79.032625 
3690.000000	79.011240 
3689.000000	78.985243 
3688.000000	78.964074 
3687.000000	78.957166 
3686.000000	78.960502 
3685.000000	78.964270 
3684.000000	78.965946 
3683.000000	78.968021 
3682.000000	78.968568 
3681.000000	78.960299 
3680.000000	78.941419 
3679.000000	78.918592 
3678.000000	78.896822 
3677.000000	78.875004 
3676.000000	78.852651 
3675.000000	78.838976 
3674.000000	78.840848 
3673.000000	78.845829 
3672.000000	78.839725 
3671.000000	78.824379 
3670.000000	78.808756 
3669.000000	78.799184 
3668.000000	78.794543 
3667.000000	78.789444 
3666.000000	78.781985 
3665.000000	78.773297 
3664.000000	78.764184 
3663.000000	78.754532 
3662.000000	78.744563 
3661.000000	78.735306 
3660.000000	78.728757 
3659.000000	78.725778 
3658.000000	78.724832 
3657.000000	78.722949 
3656.000000	78.719881 
3655.000000	78.718817 
3654.000000	78.718340 
3653.000000	78.713487 
3652.000000	78.704862 
3651.000000	78.698786 
3650.000000	78.699676 
3649.000000	78.706571 
3648.000000	78.715770 
3647.000000	78.724466 
3646.000000	78.731648 
3645.000000	78.738221 
3644.000000	78.746321 
3643.000000	78.756947 
3642.000000	78.767523 
3641.000000	78.772372 
3640.000000	78.767345 
3639.000000	78.754677 
3638.000000	78.743686 
3637.000000	78.742761 
3636.000000	78.751419 
3635.000000	78.761954 
3634.000000	78.768487 
3633.000000	78.771623 
3632.000000	78.774111 
3631.000000	78.777856 
3630.000000	78.782883 
3629.000000	78.787264 
3628.000000	78.791352 
3627.000000	78.795050 
3626.000000	78.793729 
3625.000000	78.787095 
3624.000000	78.780137 
3623.000000	78.776452 
3622.000000	78.776351 
3621.000000	78.779492 
3620.000000	78.785833 
3619.000000	78.793658 
3618.000000	78.800834 
3617.000000	78.806669 
3616.000000	78.811521 
3615.000000	78.816671 
3614.000000	78.823965 
3613.000000	78.833933 
3612.000000	78.844539 
3611.000000	78.852922 
3610.000000	78.859182 
3609.000000	78.866985 
3608.000000	78.878740 
3607.000000	78.891964 
3606.000000	78.901751 
3605.000000	78.906138 
3604.000000	78.907531 
3603.000000	78.909252 
3602.000000	78.912236 
3601.000000	78.915538 
3600.000000	78.918792 
3599.000000	78.922319 
3598.000000	78.927059 
3597.000000	78.934488 
3596.000000	78.944682 
3595.000000	78.955054 
3594.000000	78.961963 
3593.000000	78.963792 
3592.000000	78.962250 
3591.000000	78.961483 
3590.000000	78.965419 
3589.000000	78.975252 
3588.000000	78.987861 
3587.000000	78.997900 
3586.000000	79.002116 
3585.000000	79.000664 
3584.000000	78.995886 
3583.000000	78.990722 
3582.000000	78.987369 
3581.000000	78.986724 
3580.000000	78.988478 
3579.000000	78.991475 
3578.000000	78.994560 
3577.000000	78.997663 
3576.000000	79.001542 
3575.000000	79.006518 
3574.000000	79.011339 
3573.000000	79.013603 
3572.000000	79.011502 
3571.000000	79.005399 
3570.000000	78.997928 
3569.000000	78.992819 
3568.000000	78.992768 
3567.000000	78.997549 
3566.000000	79.004334 
3565.000000	79.010357 
3564.000000	79.014860 
3563.000000	79.018519 
3562.000000	79.021853 
3561.000000	79.024669 
3560.000000	79.026583 
3559.000000	79.027482 
3558.000000	79.027413 
3557.000000	79.026653 
3556.000000	79.026046 
3555.000000	79.026643 
3554.000000	79.028758 
3553.000000	79.031338 
3552.000000	79.032499 
3551.000000	79.030888 
3550.000000	79.026655 
3549.000000	79.021456 
3548.000000	79.017528 
3547.000000	79.016184 
3546.000000	79.017221 
3545.000000	79.019806 
3544.000000	79.023440 
3543.000000	79.027665 
3542.000000	79.031517 
3541.000000	79.033997 
3540.000000	79.034946 
3539.000000	79.035145 
3538.000000	79.035688 
3537.000000	79.037217 
3536.000000	79.039678 
3535.000000	79.042558 
3534.000000	79.045271 
3533.000000	79.047366 
3532.000000	79.048520 
3531.000000	79.048562 
3530.000000	79.047667 
3529.000000	79.046586 
3528.000000	79.046254 
3527.000000	79.046958 
3526.000000	79.048164 
3525.000000	79.049291 
3524.000000	79.050354 
3523.000000	79.051683 
3522.000000	79.053309 
3521.000000	79.054929 
3520.000000	79.056408 
3519.000000	79.057975 
3518.000000	79.059866 
3517.000000	79.061965 
3516.000000	79.063887 
3515.000000	79.065377 
3514.000000	79.066529 
3513.000000	79.067673 
3512.000000	79.069142 
3511.000000	79.071087 
3510.000000	79.073391 
3509.000000	79.075773 
3508.000000	79.077939 
3507.000000	79.079785 
3506.000000	79.081416 
3505.000000	79.083012 
3504.000000	79.084724 
3503.000000	79.086568 
3502.000000	79.088480 
3501.000000	79.090393 
3500.000000	79.092254 
3499.000000	79.094043 
3498.000000	79.095759 
3497.000000	79.097422 
3496.000000	79.099068 
3495.000000	79.100728 
3494.000000	79.102419 
3493.000000	79.104143 
3492.000000	79.105892 
3491.000000	79.107650 
3490.000000	79.109397 
3489.000000	79.111116 
3488.000000	79.112810 
3487.000000	79.114499 
3486.000000	79.116201 
3485.000000	79.117903 
3484.000000	79.119563 
3483.000000	79.121148 
3482.000000	79.122666 
3481.000000	79.124154 
3480.000000	79.125641 
3479.000000	79.127130 
3478.000000	79.128608 
3477.000000	79.130055 
3476.000000	79.131468 
3475.000000	79.132858 
3474.000000	79.134249 
3473.000000	79.135656 
3472.000000	79.137070 
3471.000000	79.138466 
3470.000000	79.139822 
3469.000000	79.141122 
3468.000000	79.142357 
3467.000000	79.143548 
3466.000000	79.144755 
3465.000000	79.146049 
3464.000000	79.147450 
3463.000000	79.148868 
3462.000000	79.150180 
3461.000000	79.151316 
3460.000000	79.152311 
3459.000000	79.153305 
3458.000000	79.154418 
3457.000000	79.155676 
3456.000000	79.157028 
3455.000000	79.158427 
3454.000000	79.159849 
3453.000000	79.161262 
3452.000000	79.162647 
3451.000000	79.164056 
3450.000000	79.165552 
3449.000000	79.167105 
3448.000000	79.168627 
3447.000000	79.170114 
3446.000000	79.171618 
3445.000000	79.173024 
3444.000000	79.174059 
3443.000000	79.174650 
3442.000000	79.175153 
3441.000000	79.176040 
3440.000000	79.177412 
3439.000000	79.178899 
3438.000000	79.180042 
3437.000000	79.180724 
3436.000000	79.181230 
3435.000000	79.181849 
3434.000000	79.182510 
3433.000000	79.182894 
3432.000000	79.182896 
3431.000000	79.182854 
3430.000000	79.183243 
3429.000000	79.184237 
3428.000000	79.185687 
3427.000000	79.187347 
3426.000000	79.188957 
3425.000000	79.190238 
3424.000000	79.191080 
3423.000000	79.191720 
3422.000000	79.192515 
3421.000000	79.193485 
3420.000000	79.194366 
3419.000000	79.195178 
3418.000000	79.196314 
3417.000000	79.197848 
3416.000000	79.199182 
3415.000000	79.199759 
3414.000000	79.199864 
3413.000000	79.200307 
3412.000000	79.201324 
3411.000000	79.202200 
3410.000000	79.202161 
3409.000000	79.201285 
3408.000000	79.200357 
3407.000000	79.200057 
3406.000000	79.200500 
3405.000000	79.201402 
3404.000000	79.202284 
3403.000000	79.202592 
3402.000000	79.201979 
3401.000000	79.200718 
3400.000000	79.199745 
3399.000000	79.199979 
3398.000000	79.201591 
3397.000000	79.203896 
3396.000000	79.205876 
3395.000000	79.206905 
3394.000000	79.206982 
3393.000000	79.206583 
3392.000000	79.206362 
3391.000000	79.206762 
3390.000000	79.207790 
3389.000000	79.209068 
3388.000000	79.210211 
3387.000000	79.211186 
3386.000000	79.212237 
3385.000000	79.213428 
3384.000000	79.214376 
3383.000000	79.214612 
3382.000000	79.214171 
3381.000000	79.213643 
3380.000000	79.213566 
3379.000000	79.213923 
3378.000000	79.214365 
3377.000000	79.214750 
3376.000000	79.215279 
3375.000000	79.216090 
3374.000000	79.216898 
3373.000000	79.217177 
3372.000000	79.216606 
3371.000000	79.215324 
3370.000000	79.213896 
3369.000000	79.212910 
3368.000000	79.212559 
3367.000000	79.212602 
3366.000000	79.212639 
3365.000000	79.212485 
3364.000000	79.212327 
3363.000000	79.212490 
3362.000000	79.213013 
3361.000000	79.213460 
3360.000000	79.213241 
3359.000000	79.212188 
3358.000000	79.210743 
3357.000000	79.209533 
3356.000000	79.208774 
3355.000000	79.208143 
3354.000000	79.207170 
3353.000000	79.205726 
3352.000000	79.204161 
3351.000000	79.203005 
3350.000000	79.202506 
3349.000000	79.202435 
3348.000000	79.202239 
3347.000000	79.201488 
3346.000000	79.200222 
3345.000000	79.198873 
3344.000000	79.197819 
3343.000000	79.197027 
3342.000000	79.196156 
3341.000000	79.194952 
3340.000000	79.193444 
3339.000000	79.191751 
3338.000000	79.189892 
3337.000000	79.187895 
3336.000000	79.186010 
3335.000000	79.184623 
3334.000000	79.183880 
3333.000000	79.183401 
3332.000000	79.182451 
3331.000000	79.180619 
3330.000000	79.178136 
3329.000000	79.175661 
3328.000000	79.173595 
3327.000000	79.171758 
3326.000000	79.169767 
3325.000000	79.167518 
3324.000000	79.165231 
3323.000000	79.163046 
3322.000000	79.160791 
3321.000000	79.158196 
3320.000000	79.155248 
3319.000000	79.152198 
3318.000000	79.149281 
3317.000000	79.146555 
3316.000000	79.143956 
3315.000000	79.141384 
3314.000000	79.138717 
3313.000000	79.135857 
3312.000000	79.132829 
3311.000000	79.129799 
3310.000000	79.126898 
3309.000000	79.124054 
3308.000000	79.121054 
3307.000000	79.117767 
3306.000000	79.114255 
3305.000000	79.110700 
3304.000000	79.107291 
3303.000000	79.104144 
3302.000000	79.101268 
3301.000000	79.098503 
3300.000000	79.095527 
3299.000000	79.092102 
3298.000000	79.088241 
3297.000000	79.084179 
3296.000000	79.080212 
3295.000000	79.076491 
3294.000000	79.073014 
3293.000000	79.069679 
3292.000000	79.066375 
3291.000000	79.063053 
3290.000000	79.059709 
3289.000000	79.056318 
3288.000000	79.052820 
3287.000000	79.049188 
3286.000000	79.045492 
3285.000000	79.041870 
3284.000000	79.038411 
3283.000000	79.035100 
3282.000000	79.031895 
3281.000000	79.028781 
3280.000000	79.025691 
3279.000000	79.022435 
3278.000000	79.018798 
3277.000000	79.014734 
3276.000000	79.010470 
3275.000000	79.006335 
3274.000000	79.002506 
3273.000000	78.998973 
3272.000000	78.995672 
3271.000000	78.992564 
3270.000000	78.989601 
3269.000000	78.986714 
3268.000000	78.983859 
3267.000000	78.980958 
3266.000000	78.977802 
3265.000000	78.974177 
3264.000000	78.970196 
3263.000000	78.966400 
3262.000000	78.963290 
3261.000000	78.960707 
3260.000000	78.957852 
3259.000000	78.954165 
3258.000000	78.950026 
3257.000000	78.946333 
3256.000000	78.943359 
3255.000000	78.940310 
3254.000000	78.936357 
3253.000000	78.931873 
3252.000000	78.928178 
3251.000000	78.925919 
3250.000000	78.924258 
3249.000000	78.921937 
3248.000000	78.918775 
3247.000000	78.915564 
3246.000000	78.912695 
3245.000000	78.909639 
3244.000000	78.905866 
3243.000000	78.901422 
3242.000000	78.896283 
3241.000000	78.889985 
3240.000000	78.882655 
3239.000000	78.875866 
3238.000000	78.871334 
3237.000000	78.868893 
3236.000000	78.866602 
3235.000000	78.863002 
3234.000000	78.858506 
3233.000000	78.854243 
3232.000000	78.850570 
3231.000000	78.847291 
3230.000000	78.844577 
3229.000000	78.842755 
3228.000000	78.841457 
3227.000000	78.839648 
3226.000000	78.836476 
3225.000000	78.831867 
3224.000000	78.826617 
3223.000000	78.822199 
3222.000000	78.820070 
3221.000000	78.820505 
3220.000000	78.821983 
3219.000000	78.822221 
3218.000000	78.820113 
3217.000000	78.816309 
3216.000000	78.812141 
3215.000000	78.808312 
3214.000000	78.804617 
3213.000000	78.800646 
3212.000000	78.796389 
3211.000000	78.792086 
3210.000000	78.787634 
3209.000000	78.782523 
3208.000000	78.776642 
3207.000000	78.770893 
3206.000000	78.766490 
3205.000000	78.763574 
3204.000000	78.761016 
3203.000000	78.757774 
3202.000000	78.754031 
3201.000000	78.750749 
3200.000000	78.748558 
3199.000000	78.747495 
3198.000000	78.747341 
3197.000000	78.747577 
3196.000000	78.747276 
3195.000000	78.745722 
3194.000000	78.743193 
3193.000000	78.740650 
3192.000000	78.738556 
3191.000000	78.736324 
3190.000000	78.733123 
3189.000000	78.728936 
3188.000000	78.724638 
3187.000000	78.721243 
3186.000000	78.719145 
3185.000000	78.717942 
3184.000000	78.716708 
3183.000000	78.714622 
3182.000000	78.711585 
3181.000000	78.708271 
3180.000000	78.705497 
3179.000000	78.703434 
3178.000000	78.701603 
3177.000000	78.699594 
3176.000000	78.697520 
3175.000000	78.695593 
3174.000000	78.693592 
3173.000000	78.691098 
3172.000000	78.688101 
3171.000000	78.685041 
3170.000000	78.682302 
3169.000000	78.679886 
3168.000000	78.677643 
3167.000000	78.675546 
3166.000000	78.673609 
3165.000000	78.671688 
3164.000000	78.669577 
3163.000000	78.667237 
3162.000000	78.664805 
3161.000000	78.662421 
3160.000000	78.660114 
3159.000000	78.657829 
3158.000000	78.655499 
3157.000000	78.653082 
3156.000000	78.650602 
3155.000000	78.648196 
3154.000000	78.646032 
3153.000000	78.644135 
3152.000000	78.642320 
3151.000000	78.640337 
3150.000000	78.638112 
3149.000000	78.635804 
3148.000000	78.633643 
3147.000000	78.631711 
3146.000000	78.629912 
3145.000000	78.628133 
3144.000000	78.626360 
3143.000000	78.624606 
3142.000000	78.622822 
3141.000000	78.620960 
3140.000000	78.619116 
3139.000000	78.617511 
3138.000000	78.616283 
3137.000000	78.615305 
3136.000000	78.614199 
3135.000000	78.612664 
3134.000000	78.610687 
3133.000000	78.608481 
3132.000000	78.606333 
3131.000000	78.604479 
3130.000000	78.603058 
3129.000000	78.602043 
3128.000000	78.601206 
3127.000000	78.600289 
3126.000000	78.599141 
3125.000000	78.597699 
3124.000000	78.595972 
3123.000000	78.594100 
3122.000000	78.592283 
3121.000000	78.590576 
3120.000000	78.588872 
3119.000000	78.587186 
3118.000000	78.585852 
3117.000000	78.585230 
3116.000000	78.585300 
3115.000000	78.585643 
3114.000000	78.585711 
3113.000000	78.585067 
3112.000000	78.583482 
3111.000000	78.581111 
3110.000000	78.578687 
3109.000000	78.577259 
3108.000000	78.577472 
3107.000000	78.579047 
3106.000000	78.580879 
3105.000000	78.581901 
3104.000000	78.581794 
3103.000000	78.580882 
3102.000000	78.579667 
3101.000000	78.578611 
3100.000000	78.578201 
3099.000000	78.578760 
3098.000000	78.580036 
3097.000000	78.581274 
3096.000000	78.581823 
3095.000000	78.581318 
3094.000000	78.579174 
3093.000000	78.574631 
3092.000000	78.567981 
3091.000000	78.561437 
3090.000000	78.557728 
3089.000000	78.557881 
3088.000000	78.560603 
3087.000000	78.563504 
3086.000000	78.564892 
3085.000000	78.564569 
3084.000000	78.563682 
3083.000000	78.563790 
3082.000000	78.565230 
3081.000000	78.566460 
3080.000000	78.565938 
3079.000000	78.564465 
3078.000000	78.564460 
3077.000000	78.566799 
3076.000000	78.569671 
3075.000000	78.570765 
3074.000000	78.569423 
3073.000000	78.566778 
3072.000000	78.565157 
3071.000000	78.567004 
3070.000000	78.572473 
3069.000000	78.577945 
3068.000000	78.578951 
3067.000000	78.575042 
3066.000000	78.570102 
3065.000000	78.567755 
3064.000000	78.568343 
3063.000000	78.570464 
3062.000000	78.572601 
3061.000000	78.572505 
3060.000000	78.568048 
3059.000000	78.560345 
3058.000000	78.553657 
3057.000000	78.550227 
3056.000000	78.547230 
3055.000000	78.541094 
3054.000000	78.532940 
3053.000000	78.527208 
3052.000000	78.526134 
3051.000000	78.528003 
3050.000000	78.530176 
3049.000000	78.531343 
3048.000000	78.530837 
3047.000000	78.527982 
3046.000000	78.522785 
3045.000000	78.515894 
3044.000000	78.507494 
3043.000000	78.497383 
3042.000000	78.486288 
3041.000000	78.475876 
3040.000000	78.466849 
3039.000000	78.457635 
3038.000000	78.445773 
3037.000000	78.430960 
3036.000000	78.416455 
3035.000000	78.406598 
3034.000000	78.402246 
3033.000000	78.399215 
3032.000000	78.392474 
3031.000000	78.381561 
3030.000000	78.369620 
3029.000000	78.357030 
3028.000000	78.339464 
3027.000000	78.313543 
3026.000000	78.281737 
3025.000000	78.249656 
3024.000000	78.219912 
3023.000000	78.191051 
3022.000000	78.161595 
3021.000000	78.132309 
3020.000000	78.104313 
3019.000000	78.077265 
3018.000000	78.050371 
3017.000000	78.023674 
3016.000000	77.997214 
3015.000000	77.969916 
3014.000000	77.940616 
3013.000000	77.909825 
3012.000000	77.879263 
3011.000000	77.849496 
3010.000000	77.819149 
3009.000000	77.787155 
3008.000000	77.754871 
3007.000000	77.724627 
3006.000000	77.696368 
3005.000000	77.667359 
3004.000000	77.635786 
3003.000000	77.603150 
3002.000000	77.572158 
3001.000000	77.543828 
3000.000000	77.518024 
2999.000000	77.495250 
2998.000000	77.475825 
2997.000000	77.458292 
2996.000000	77.440723 
2995.000000	77.422316 
2994.000000	77.400798 
2993.000000	77.369852 
2992.000000	77.324576 
2991.000000	77.271274 
2990.000000	77.227838 
2989.000000	77.211128 
2988.000000	77.225544 
2987.000000	77.263930 
2986.000000	77.315306 
2985.000000	77.369397 
2984.000000	77.417324 
2983.000000	77.454038 
2982.000000	77.481077 
2981.000000	77.503974 
2980.000000	77.525982 
2979.000000	77.545549 
2978.000000	77.559312 
2977.000000	77.565311 
2976.000000	77.563733 
2975.000000	77.557325 
2974.000000	77.551484 
2973.000000	77.550947 
2972.000000	77.554625 
2971.000000	77.555441 
2970.000000	77.547303 
2969.000000	77.531825 
2968.000000	77.517114 
2967.000000	77.510313 
2966.000000	77.512065 
2965.000000	77.517586 
2964.000000	77.521588 
2963.000000	77.521837 
2962.000000	77.519178 
2961.000000	77.515655 
2960.000000	77.513194 
2959.000000	77.513339 
2958.000000	77.517186 
2957.000000	77.525346 
2956.000000	77.538275 
2955.000000	77.556334 
2954.000000	77.578669 
2953.000000	77.602283 
2952.000000	77.623525 
2951.000000	77.640910 
2950.000000	77.655436 
2949.000000	77.667857 
2948.000000	77.677067 
2947.000000	77.682029 
2946.000000	77.684243 
2945.000000	77.687101 
2944.000000	77.693335 
2943.000000	77.704152 
2942.000000	77.720003 
2941.000000	77.740448 
2940.000000	77.763251 
2939.000000	77.784968 
2938.000000	77.802800 
2937.000000	77.815504 
2936.000000	77.823212 
2935.000000	77.827404 
2934.000000	77.830718 
2933.000000	77.835289 
2932.000000	77.840623 
2931.000000	77.843790 
2930.000000	77.842112 
2929.000000	77.835321 
2928.000000	77.825050 
2927.000000	77.813066 
2926.000000	77.800798 
2925.000000	77.790083 
2924.000000	77.782915 
2923.000000	77.779353 
2922.000000	77.776231 
2921.000000	77.769579 
2920.000000	77.758655 
2919.000000	77.746164 
2918.000000	77.733735 
2917.000000	77.718679 
2916.000000	77.696862 
2915.000000	77.668100 
2914.000000	77.637398 
2913.000000	77.611535 
2912.000000	77.595457 
2911.000000	77.590333 
2910.000000	77.592064 
2909.000000	77.592143 
2908.000000	77.583723 
2907.000000	77.568060 
2906.000000	77.552246 
2905.000000	77.539523 
2904.000000	77.525513 
2903.000000	77.506831 
2902.000000	77.490536 
2901.000000	77.490115 
2900.000000	77.511937 
2899.000000	77.548254 
2898.000000	77.583901 
2897.000000	77.608476 
2896.000000	77.621926 
2895.000000	77.630487 
2894.000000	77.639486 
2893.000000	77.649390 
2892.000000	77.657291 
2891.000000	77.661130 
2890.000000	77.661844 
2889.000000	77.661581 
2888.000000	77.661270 
2887.000000	77.661284 
2886.000000	77.663666 
2885.000000	77.671631 
2884.000000	77.686454 
2883.000000	77.706212 
2882.000000	77.728159 
2881.000000	77.751245 
2880.000000	77.775563 
2879.000000	77.800451 
2878.000000	77.824352 
2877.000000	77.845963 
2876.000000	77.864092 
2875.000000	77.876496 
2874.000000	77.880630 
2873.000000	77.876992 
2872.000000	77.871210 
2871.000000	77.871172 
2870.000000	77.881205 
2869.000000	77.899188 
2868.000000	77.919424 
2867.000000	77.938098 
2866.000000	77.955878 
2865.000000	77.975773 
2864.000000	77.999377 
2863.000000	78.025344 
2862.000000	78.050877 
2861.000000	78.074141 
2860.000000	78.095194 
2859.000000	78.114853 
2858.000000	78.133153 
2857.000000	78.149321 
2856.000000	78.162817 
2855.000000	78.173751 
2854.000000	78.182993 
2853.000000	78.192679 
2852.000000	78.205657 
2851.000000	78.222554 
2850.000000	78.239300 
2849.000000	78.249833 
2848.000000	78.252648 
2847.000000	78.253248 
2846.000000	78.258414 
2845.000000	78.268906 
2844.000000	78.279684 
2843.000000	78.286326 
2842.000000	78.288803 
2841.000000	78.289551 
2840.000000	78.290567 
2839.000000	78.293081 
2838.000000	78.297889 
2837.000000	78.304486 
2836.000000	78.310975 
2835.000000	78.315936 
2834.000000	78.319735 
2833.000000	78.323399 
2832.000000	78.326968 
2831.000000	78.329682 
2830.000000	78.331212 
2829.000000	78.332063 
2828.000000	78.333149 
2827.000000	78.335358 
2826.000000	78.339110 
2825.000000	78.343966 
2824.000000	78.348861 
2823.000000	78.352792 
2822.000000	78.355217 
2821.000000	78.356215 
2820.000000	78.356559 
2819.000000	78.357103 
2818.000000	78.357666 
2817.000000	78.357305 
2816.000000	78.356349 
2815.000000	78.357133 
2814.000000	78.361439 
2813.000000	78.367926 
2812.000000	78.373495 
2811.000000	78.376586 
2810.000000	78.377634 
2809.000000	78.376960 
2808.000000	78.374339 
2807.000000	78.370617 
2806.000000	78.367751 
2805.000000	78.366578 
2804.000000	78.365911 
2803.000000	78.364499 
2802.000000	78.362753 
2801.000000	78.362037 
2800.000000	78.363214 
2799.000000	78.366280 
2798.000000	78.370592 
2797.000000	78.374980 
2796.000000	78.378207 
2795.000000	78.379723 
2794.000000	78.379808 
2793.000000	78.379083 
2792.000000	78.378255 
2791.000000	78.378091 
2790.000000	78.378990 
2789.000000	78.380604 
2788.000000	78.382312 
2787.000000	78.383989 
2786.000000	78.385920 
2785.000000	78.388028 
2784.000000	78.389739 
2783.000000	78.390663 
2782.000000	78.391011 
2781.000000	78.391328 
2780.000000	78.392061 
2779.000000	78.393352 
2778.000000	78.394924 
2777.000000	78.396182 
2776.000000	78.396698 
2775.000000	78.396625 
2774.000000	78.396540 
2773.000000	78.396889 
2772.000000	78.397726 
2771.000000	78.398866 
2770.000000	78.400033 
2769.000000	78.400968 
2768.000000	78.401620 
2767.000000	78.402252 
2766.000000	78.403195 
2765.000000	78.404429 
2764.000000	78.405559 
2763.000000	78.406289 
2762.000000	78.406775 
2761.000000	78.407358 
2760.000000	78.408072 
2759.000000	78.408658 
2758.000000	78.408962 
2757.000000	78.409171 
2756.000000	78.409699 
2755.000000	78.410861 
2754.000000	78.412508 
2753.000000	78.413962 
2752.000000	78.414666 
2751.000000	78.414920 
2750.000000	78.415570 
2749.000000	78.416900 
2748.000000	78.418340 
2747.000000	78.419489 
2746.000000	78.420817 
2745.000000	78.422842 
2744.000000	78.425156 
2743.000000	78.426856 
2742.000000	78.427668 
2741.000000	78.428012 
2740.000000	78.428160 
2739.000000	78.427959 
2738.000000	78.427450 
2737.000000	78.427215 
2736.000000	78.427867 
2735.000000	78.429497 
2734.000000	78.431610 
2733.000000	78.433396 
2732.000000	78.434354 
2731.000000	78.434931 
2730.000000	78.436268 
2729.000000	78.438919 
2728.000000	78.442109 
2727.000000	78.444686 
2726.000000	78.446422 
2725.000000	78.447777 
2724.000000	78.448781 
2723.000000	78.449028 
2722.000000	78.448577 
2721.000000	78.447935 
2720.000000	78.447159 
2719.000000	78.445831 
2718.000000	78.444071 
2717.000000	78.442898 
2716.000000	78.443349 
2715.000000	78.445622 
2714.000000	78.449083 
2713.000000	78.452663 
2712.000000	78.455270 
2711.000000	78.456271 
2710.000000	78.455775 
2709.000000	78.454411 
2708.000000	78.452876 
2707.000000	78.451903 
2706.000000	78.452199 
2705.000000	78.453882 
2704.000000	78.456131 
2703.000000	78.457875 
2702.000000	78.458820 
2701.000000	78.459431 
2700.000000	78.459977 
2699.000000	78.460052 
2698.000000	78.459059 
2697.000000	78.456896 
2696.000000	78.454249 
2695.000000	78.452192 
2694.000000	78.451325 
2693.000000	78.451124 
2692.000000	78.450372 
2691.000000	78.448442 
2690.000000	78.446006 
2689.000000	78.444328 
2688.000000	78.444025 
2687.000000	78.444753 
2686.000000	78.445816 
2685.000000	78.446818 
2684.000000	78.447775 
2683.000000	78.448784 
2682.000000	78.449800 
2681.000000	78.450724 
2680.000000	78.451596 
2679.000000	78.452483 
2678.000000	78.453160 
2677.000000	78.453223 
2676.000000	78.452675 
2675.000000	78.452072 
2674.000000	78.451885 
2673.000000	78.452087 
2672.000000	78.452601 
2671.000000	78.453682 
2670.000000	78.455321 
2669.000000	78.456647 
2668.000000	78.456693 
2667.000000	78.455620 
2666.000000	78.454684 
2665.000000	78.454913 
2664.000000	78.456284 
2663.000000	78.458208 
2662.000000	78.460154 
2661.000000	78.461685 
2660.000000	78.462456 
2659.000000	78.462603 
2658.000000	78.462835 
2657.000000	78.463723 
2656.000000	78.464993 
2655.000000	78.465848 
2654.000000	78.465917 
2653.000000	78.465591 
2652.000000	78.465564 
2651.000000	78.466204 
2650.000000	78.467413 
2649.000000	78.468830 
2648.000000	78.470105 
2647.000000	78.471062 
2646.000000	78.471629 
2645.000000	78.471717 
2644.000000	78.471364 
2643.000000	78.470933 
2642.000000	78.470895 
2641.000000	78.471337 
2640.000000	78.471883 
2639.000000	78.472240 
2638.000000	78.472494 
2637.000000	78.472650 
2636.000000	78.472271 
2635.000000	78.471063 
2634.000000	78.469603 
2633.000000	78.468892 
2632.000000	78.469291 
2631.000000	78.470422 
2630.000000	78.471874 
2629.000000	78.473407 
2628.000000	78.474600 
2627.000000	78.475059 
2626.000000	78.475122 
2625.000000	78.475703 
2624.000000	78.477105 
2623.000000	78.478499 
2622.000000	78.478877 
2621.000000	78.478232 
2620.000000	78.477560 
2619.000000	78.477853 
2618.000000	78.479183 
2617.000000	78.480599 
2616.000000	78.480985 
2615.000000	78.480193 
2614.000000	78.479235 
2613.000000	78.479112 
2612.000000	78.479524 
2611.000000	78.479349 
2610.000000	78.478322 
2609.000000	78.477564 
2608.000000	78.478097 
2607.000000	78.479310 
2606.000000	78.479468 
2605.000000	78.477605 
2604.000000	78.474441 
2603.000000	78.471557 
2602.000000	78.469909 
2601.000000	78.469418 
2600.000000	78.469734 
2599.000000	78.470873 
2598.000000	78.472884 
2597.000000	78.475302 
2596.000000	78.477427 
2595.000000	78.479109 
2594.000000	78.480810 
2593.000000	78.482772 
2592.000000	78.484464 
2591.000000	78.485093 
2590.000000	78.484407 
2589.000000	78.482946 
2588.000000	78.481709 
2587.000000	78.481572 
2586.000000	78.482627 
2585.000000	78.483930 
2584.000000	78.484248 
2583.000000	78.483341 
2582.000000	78.482117 
2581.000000	78.481392 
2580.000000	78.481031 
2579.000000	78.480757 
2578.000000	78.481171 
2577.000000	78.483110 
2576.000000	78.486304 
2575.000000	78.489359 
2574.000000	78.491236 
2573.000000	78.492183 
2572.000000	78.493090 
2571.000000	78.494437 
2570.000000	78.496023 
2569.000000	78.497409 
2568.000000	78.498272 
2567.000000	78.498491 
2566.000000	78.498227 
2565.000000	78.498018 
2564.000000	78.498503 
2563.000000	78.499807 
2562.000000	78.501321 
2561.000000	78.502267 
2560.000000	78.502473 
2559.000000	78.502364 
2558.000000	78.502378 
2557.000000	78.502596 
2556.000000	78.502924 
2555.000000	78.503364 
2554.000000	78.503925 
2553.000000	78.504491 
2552.000000	78.504955 
2551.000000	78.505415 
2550.000000	78.506046 
2549.000000	78.506815 
2548.000000	78.507499 
2547.000000	78.507981 
2546.000000	78.508392 
2545.000000	78.508909 
2544.000000	78.509528 
2543.000000	78.510078 
2542.000000	78.510427 
2541.000000	78.510612 
2540.000000	78.510777 
2539.000000	78.511051 
2538.000000	78.511442 
2537.000000	78.511877 
2536.000000	78.512270 
2535.000000	78.512579 
2534.000000	78.512809 
2533.000000	78.512973 
2532.000000	78.513081 
2531.000000	78.513172 
2530.000000	78.513320 
2529.000000	78.513573 
2528.000000	78.513906 
2527.000000	78.514240 
2526.000000	78.514506 
2525.000000	78.514670 
2524.000000	78.514762 
2523.000000	78.514896 
2522.000000	78.515214 
2521.000000	78.515749 
2520.000000	78.516297 
2519.000000	78.516581 
2518.000000	78.516486 
2517.000000	78.516117 
2516.000000	78.515705 
2515.000000	78.515453 
2514.000000	78.515439 
2513.000000	78.515555 
2512.000000	78.515584 
2511.000000	78.515439 
2510.000000	78.515246 
2509.000000	78.515150 
2508.000000	78.515159 
2507.000000	78.515294 
2506.000000	78.515659 
2505.000000	78.516153 
2504.000000	78.516404 
2503.000000	78.516281 
2502.000000	78.516196 
2501.000000	78.516522 
2500.000000	78.516949 
2499.000000	78.516953 
2498.000000	78.516658 
2497.000000	78.516601 
2496.000000	78.516727 
2495.000000	78.516346 
2494.000000	78.515140 
2493.000000	78.513608 
2492.000000	78.512433 
2491.000000	78.511833 
2490.000000	78.511724 
2489.000000	78.512006 
2488.000000	78.512442 
2487.000000	78.512641 
2486.000000	78.512486 
2485.000000	78.512318 
2484.000000	78.512454 
2483.000000	78.512710 
2482.000000	78.512688 
2481.000000	78.512385 
2480.000000	78.512208 
2479.000000	78.512403 
2478.000000	78.512745 
2477.000000	78.512901 
2476.000000	78.512902 
2475.000000	78.513064 
2474.000000	78.513518 
2473.000000	78.514049 
2472.000000	78.514482 
2471.000000	78.515054 
2470.000000	78.516129 
2469.000000	78.517538 
2468.000000	78.518449 
2467.000000	78.518168 
2466.000000	78.516802 
2465.000000	78.515205 
2464.000000	78.514290 
2463.000000	78.514323 
2462.000000	78.514886 
2461.000000	78.515227 
2460.000000	78.514868 
2459.000000	78.513961 
2458.000000	78.513073 
2457.000000	78.512607 
2456.000000	78.512512 
2455.000000	78.512569 
2454.000000	78.512737 
2453.000000	78.513075 
2452.000000	78.513465 
2451.000000	78.513623 
2450.000000	78.513426 
2449.000000	78.513146 
2448.000000	78.513313 
2447.000000	78.514241 
2446.000000	78.515615 
2445.000000	78.516626 
2444.000000	78.516765 
2443.000000	78.516396 
2442.000000	78.516286 
2441.000000	78.516564 
2440.000000	78.516596 
2439.000000	78.515920 
2438.000000	78.514788 
2437.000000	78.513591 
2436.000000	78.512330 
2435.000000	78.511154 
2434.000000	78.510883 
2433.000000	78.512236 
2432.000000	78.514794 
2431.000000	78.517256 
2430.000000	78.518815 
2429.000000	78.519680 
2428.000000	78.520256 
2427.000000	78.520401 
2426.000000	78.519701 
2425.000000	78.518120 
2424.000000	78.516177 
2423.000000	78.514486 
2422.000000	78.513231 
2421.000000	78.512212 
2420.000000	78.511457 
2419.000000	78.511569 
2418.000000	78.513114 
2417.000000	78.515610 
2416.000000	78.517955 
2415.000000	78.519746 
2414.000000	78.521436 
2413.000000	78.523201 
2412.000000	78.524493 
2411.000000	78.525062 
2410.000000	78.525376 
2409.000000	78.525685 
2408.000000	78.525545 
2407.000000	78.524718 
2406.000000	78.523852 
2405.000000	78.523734 
2404.000000	78.524313 
2403.000000	78.524896 
2402.000000	78.525098 
2401.000000	78.525126 
2400.000000	78.525294 
2399.000000	78.525654 
2398.000000	78.526039 
2397.000000	78.526250 
2396.000000	78.526171 
2395.000000	78.525877 
2394.000000	78.525554 
2393.000000	78.525352 
2392.000000	78.525296 
2391.000000	78.525311 
2390.000000	78.525325 
2389.000000	78.525318 
2388.000000	78.525309 
2387.000000	78.525307 
2386.000000	78.525312 
2385.000000	78.525324 
2384.000000	78.525353 
2383.000000	78.525406 
2382.000000	78.525485 
2381.000000	78.525583 
2380.000000	78.525690 
2379.000000	78.525807 
2378.000000	78.525941 
2377.000000	78.526096 
2376.000000	78.526267 
2375.000000	78.526452 
2374.000000	78.526659 
2373.000000	78.526903 
2372.000000	78.527183 
2371.000000	78.527479 
2370.000000	78.527770 
2369.000000	78.528050 
2368.000000	78.528330 
2367.000000	78.528628 
2366.000000	78.528965 
2365.000000	78.529355 
2364.000000	78.529797 
2363.000000	78.530276 
2362.000000	78.530767 
2361.000000	78.531255 
2360.000000	78.531736 
2359.000000	78.532225 
2358.000000	78.532738 
2357.000000	78.533288 
2356.000000	78.533875 
2355.000000	78.534492 
2354.000000	78.535124 
2353.000000	78.535766 
2352.000000	78.536423 
2351.000000	78.537104 
2350.000000	78.537808 
2349.000000	78.538530 
2348.000000	78.539285 
2347.000000	78.540061 
2346.000000	78.540808 
2345.000000	78.541471 
2344.000000	78.542072 
2343.000000	78.542755 
2342.000000	78.543613 
2341.000000	78.544544 
2340.000000	78.545347 
2339.000000	78.546069 
2338.000000	78.547150 
2337.000000	78.548956 
2336.000000	78.551203 
2335.000000	78.553073 
2334.000000	78.554011 
2333.000000	78.554157 
2332.000000	78.553958 
2331.000000	78.553378 
2330.000000	78.552199 
2329.000000	78.550468 
2328.000000	78.548832 
2327.000000	78.547874 
2326.000000	78.547882 
2325.000000	78.549032 
2324.000000	78.551105 
2323.000000	78.553672 
2322.000000	78.556006 
2321.000000	78.557789 
2320.000000	78.559029 
2319.000000	78.559905 
2318.000000	78.560772 
2317.000000	78.561925 
2316.000000	78.563423 
2315.000000	78.564908 
2314.000000	78.566228 
2313.000000	78.567428 
2312.000000	78.568345 
2311.000000	78.568270 
2310.000000	78.566848 
2309.000000	78.564752 
2308.000000	78.563028 
2307.000000	78.562084 
2306.000000	78.561704 
2305.000000	78.562012 
2304.000000	78.563571 
2303.000000	78.566448 
2302.000000	78.569603 
2301.000000	78.571638 
2300.000000	78.571974 
2299.000000	78.571092 
2298.000000	78.570036 
2297.000000	78.569673 
2296.000000	78.570268 
2295.000000	78.571400 
2294.000000	78.572349 
2293.000000	78.572777 
2292.000000	78.572969 
2291.000000	78.573384 
2290.000000	78.574096 
2289.000000	78.574870 
2288.000000	78.575562 
2287.000000	78.576248 
2286.000000	78.576959 
2285.000000	78.577552 
2284.000000	78.577880 
2283.000000	78.577960 
2282.000000	78.577964 
2281.000000	78.578189 
2280.000000	78.578936 
2279.000000	78.580244 
2278.000000	78.581679 
2277.000000	78.582689 
2276.000000	78.583242 
2275.000000	78.583771 
2274.000000	78.584412 
2273.000000	78.584704 
2272.000000	78.584320 
2271.000000	78.583640 
2270.000000	78.583371 
2269.000000	78.583716 
2268.000000	78.584340 
2267.000000	78.584947 
2266.000000	78.585552 
2265.000000	78.586209 
2264.000000	78.586846 
2263.000000	78.587464 
2262.000000	78.588184 
2261.000000	78.589024 
2260.000000	78.589837 
2259.000000	78.590564 
2258.000000	78.591336 
2257.000000	78.592281 
2256.000000	78.593384 
2255.000000	78.594548 
2254.000000	78.595642 
2253.000000	78.596546 
2252.000000	78.597252 
2251.000000	78.597875 
2250.000000	78.598537 
2249.000000	78.599274 
2248.000000	78.600071 
2247.000000	78.600922 
2246.000000	78.601801 
2245.000000	78.602666 
2244.000000	78.603529 
2243.000000	78.604424 
2242.000000	78.605344 
2241.000000	78.606260 
2240.000000	78.607167 
2239.000000	78.608066 
2238.000000	78.608959 
2237.000000	78.609855 
2236.000000	78.610757 
2235.000000	78.611669 
2234.000000	78.612594 
2233.000000	78.613533 
2232.000000	78.614491 
2231.000000	78.615469 
2230.000000	78.616467 
2229.000000	78.617478 
2228.000000	78.618497 
2227.000000	78.619520 
2226.000000	78.620553 
2225.000000	78.621603 
2224.000000	78.622672 
2223.000000	78.623754 
2222.000000	78.624848 
2221.000000	78.625949 
2220.000000	78.627043 
2219.000000	78.628130 
2218.000000	78.629229 
2217.000000	78.630323 
2216.000000	78.631328 
2215.000000	78.632170 
2214.000000	78.632907 
2213.000000	78.633716 
2212.000000	78.634720 
2211.000000	78.635873 
2210.000000	78.637032 
2209.000000	78.638120 
2208.000000	78.639187 
2207.000000	78.640367 
2206.000000	78.641749 
2205.000000	78.643229 
2204.000000	78.644517 
2203.000000	78.645349 
2202.000000	78.645656 
2201.000000	78.645579 
2200.000000	78.645474 
2199.000000	78.645884 
2198.000000	78.647222 
2197.000000	78.649329 
2196.000000	78.651506 
2195.000000	78.653198 
2194.000000	78.654412 
2193.000000	78.655440 
2192.000000	78.656483 
2191.000000	78.657603 
2190.000000	78.658767 
2189.000000	78.659854 
2188.000000	78.660922 
2187.000000	78.662480 
2186.000000	78.665062 
2185.000000	78.668365 
2184.000000	78.671180 
2183.000000	78.672604 
2182.000000	78.672775 
2181.000000	78.672375 
2180.000000	78.671862 
2179.000000	78.671473 
2178.000000	78.671514 
2177.000000	78.672110 
2176.000000	78.672960 
2175.000000	78.673720 
2174.000000	78.674413 
2173.000000	78.675164 
2172.000000	78.675852 
2171.000000	78.676432 
2170.000000	78.677311 
2169.000000	78.678929 
2168.000000	78.681080 
2167.000000	78.683035 
2166.000000	78.684297 
2165.000000	78.684938 
2164.000000	78.685268 
2163.000000	78.685486 
2162.000000	78.685643 
2161.000000	78.685746 
2160.000000	78.685930 
2159.000000	78.686555 
2158.000000	78.687924 
2157.000000	78.689738 
2156.000000	78.691085 
2155.000000	78.691308 
2154.000000	78.690653 
2153.000000	78.689953 
2152.000000	78.689774 
2151.000000	78.690147 
2150.000000	78.690980 
2149.000000	78.692234 
2148.000000	78.693654 
2147.000000	78.694768 
2146.000000	78.695341 
2145.000000	78.695606 
2144.000000	78.695907 
2143.000000	78.696283 
2142.000000	78.696475 
2141.000000	78.696191 
2140.000000	78.695347 
2139.000000	78.694266 
2138.000000	78.693654 
2137.000000	78.694149 
2136.000000	78.695805 
2135.000000	78.698075 
2134.000000	78.700266 
2133.000000	78.701989 
2132.000000	78.703239 
2131.000000	78.704250 
2130.000000	78.705280 
2129.000000	78.706380 
2128.000000	78.707402 
2127.000000	78.708235 
2126.000000	78.708892 
2125.000000	78.709322 
2124.000000	78.709376 
2123.000000	78.709153 
2122.000000	78.709162 
2121.000000	78.709906 
2120.000000	78.711402 
2119.000000	78.713181 
2118.000000	78.714682 
2117.000000	78.715594 
2116.000000	78.715910 
2115.000000	78.715883 
2114.000000	78.715848 
2113.000000	78.715986 
2112.000000	78.716312 
2111.000000	78.716857 
2110.000000	78.717692 
2109.000000	78.718731 
2108.000000	78.719754 
2107.000000	78.720775 
2106.000000	78.722087 
2105.000000	78.723754 
2104.000000	78.725316 
2103.000000	78.726264 
2102.000000	78.726661 
2101.000000	78.727100 
2100.000000	78.728069 
2099.000000	78.729513 
2098.000000	78.731003 
2097.000000	78.732186 
2096.000000	78.733094 
2095.000000	78.734039 
2094.000000	78.735234 
2093.000000	78.736512 
2092.000000	78.737460 
2091.000000	78.737850 
2090.000000	78.737885 
2089.000000	78.738014 
2088.000000	78.738590 
2087.000000	78.739789 
2086.000000	78.741594 
2085.000000	78.743649 
2084.000000	78.745362 
2083.000000	78.746492 
2082.000000	78.747411 
2081.000000	78.748571 
2080.000000	78.749844 
2079.000000	78.750801 
2078.000000	78.751435 
2077.000000	78.752076 
2076.000000	78.752736 
2075.000000	78.753157 
2074.000000	78.753461 
2073.000000	78.754125 
2072.000000	78.755189 
2071.000000	78.756074 
2070.000000	78.756346 
2069.000000	78.756268 
2068.000000	78.756404 
2067.000000	78.757005 
2066.000000	78.757994 
2065.000000	78.759195 
2064.000000	78.760317 
2063.000000	78.760981 
2062.000000	78.761042 
2061.000000	78.760779 
2060.000000	78.760539 
2059.000000	78.760303 
2058.000000	78.759839 
2057.000000	78.759254 
2056.000000	78.759071 
2055.000000	78.759692 
2054.000000	78.760981 
2053.000000	78.762380 
2052.000000	78.763408 
2051.000000	78.764012 
2050.000000	78.764486 
2049.000000	78.765154 
2048.000000	78.766084 
2047.000000	78.766987 
2046.000000	78.767385 
2045.000000	78.766966 
2044.000000	78.765876 
2043.000000	78.764726 
2042.000000	78.764177 
2041.000000	78.764405 
2040.000000	78.765035 
2039.000000	78.765554 
2038.000000	78.765788 
2037.000000	78.765938 
2036.000000	78.766280 
2035.000000	78.766917 
2034.000000	78.767702 
2033.000000	78.768333 
2032.000000	78.768647 
2031.000000	78.768814 
2030.000000	78.769146 
2029.000000	78.769620 
2028.000000	78.769792 
2027.000000	78.769359 
2026.000000	78.768605 
2025.000000	78.768140 
2024.000000	78.768171 
2023.000000	78.768344 
2022.000000	78.768303 
2021.000000	78.768137 
2020.000000	78.768147 
2019.000000	78.768344 
2018.000000	78.768413 
2017.000000	78.768166 
2016.000000	78.767898 
2015.000000	78.768177 
2014.000000	78.769294 
2013.000000	78.770956 
2012.000000	78.772446 
2011.000000	78.773160 
2010.000000	78.772975 
2009.000000	78.772147 
2008.000000	78.771045 
2007.000000	78.769955 
2006.000000	78.769024 
2005.000000	78.768377 
2004.000000	78.768197 
2003.000000	78.768701 
2002.000000	78.769879 
2001.000000	78.771284 
2000.000000	78.772351 
1999.000000	78.772796 
1998.000000	78.772636 
1997.000000	78.771994 
1996.000000	78.771118 
1995.000000	78.770540 
1994.000000	78.770753 
1993.000000	78.771659 
1992.000000	78.772583 
1991.000000	78.773136 
1990.000000	78.773697 
1989.000000	78.774723 
1988.000000	78.776008 
1987.000000	78.776981 
1986.000000	78.777478 
1985.000000	78.777904 
1984.000000	78.778715 
1983.000000	78.780048 
1982.000000	78.781723 
1981.000000	78.783311 
1980.000000	78.784350 
1979.000000	78.784646 
1978.000000	78.784540 
1977.000000	78.784718 
1976.000000	78.785627 
1975.000000	78.787131 
1974.000000	78.788650 
1973.000000	78.789608 
1972.000000	78.789821 
1971.000000	78.789631 
1970.000000	78.789693 
1969.000000	78.790443 
1968.000000	78.791777 
1967.000000	78.793284 
1966.000000	78.794753 
1965.000000	78.796316 
1964.000000	78.798063 
1963.000000	78.799799 
1962.000000	78.801300 
1961.000000	78.802574 
1960.000000	78.803719 
1959.000000	78.804689 
1958.000000	78.805442 
1957.000000	78.806175 
1956.000000	78.807101 
1955.000000	78.807961 
1954.000000	78.808206 
1953.000000	78.807731 
1952.000000	78.807130 
1951.000000	78.807203 
1950.000000	78.808176 
1949.000000	78.809597 
1948.000000	78.810922 
1947.000000	78.811978 
1946.000000	78.812867 
1945.000000	78.813699 
1944.000000	78.814564 
1943.000000	78.815560 
1942.000000	78.816602 
1941.000000	78.817453 
1940.000000	78.818173 
1939.000000	78.819182 
1938.000000	78.820680 
1937.000000	78.822165 
1936.000000	78.822864 
1935.000000	78.822627 
1934.000000	78.822208 
1933.000000	78.822498 
1932.000000	78.823480 
1931.000000	78.824405 
1930.000000	78.824634 
1929.000000	78.824348 
1928.000000	78.824378 
1927.000000	78.825237 
1926.000000	78.826659 
1925.000000	78.827687 
1924.000000	78.827704 
1923.000000	78.827248 
1922.000000	78.827398 
1921.000000	78.828564 
1920.000000	78.830132 
1919.000000	78.831084 
1918.000000	78.830691 
1917.000000	78.828873 
1916.000000	78.826403 
1915.000000	78.824453 
1914.000000	78.823664 
1913.000000	78.823732 
1912.000000	78.823849 
1911.000000	78.823757 
1910.000000	78.823863 
1909.000000	78.824531 
1908.000000	78.825457 
1907.000000	78.825866 
1906.000000	78.825369 
1905.000000	78.823977 
1904.000000	78.822294 
1903.000000	78.821506 
1902.000000	78.822127 
1901.000000	78.823156 
1900.000000	78.822862 
1899.000000	78.820669 
1898.000000	78.818013 
1897.000000	78.816767 
1896.000000	78.817391 
1895.000000	78.818935 
1894.000000	78.820264 
1893.000000	78.821132 
1892.000000	78.821955 
1891.000000	78.822946 
1890.000000	78.823734 
1889.000000	78.823895 
1888.000000	78.823768 
1887.000000	78.824282 
1886.000000	78.825872 
1885.000000	78.828142 
1884.000000	78.830687 
1883.000000	78.833515 
1882.000000	78.836029 
1881.000000	78.836880 
1880.000000	78.835648 
1879.000000	78.833771 
1878.000000	78.833285 
1877.000000	78.834656 
1876.000000	78.836775 
1875.000000	78.839123 
1874.000000	78.842180 
1873.000000	78.845498 
1872.000000	78.847271 
1871.000000	78.846448 
1870.000000	78.844588 
1869.000000	78.844723 
1868.000000	78.848121 
1867.000000	78.853419 
1866.000000	78.858604 
1865.000000	78.862565 
1864.000000	78.865275 
1863.000000	78.867603 
1862.000000	78.870502 
1861.000000	78.874007 
1860.000000	78.877475 
1859.000000	78.880844 
1858.000000	78.884776 
1857.000000	78.889328 
1856.000000	78.893376 
1855.000000	78.896193 
1854.000000	78.898225 
1853.000000	78.900498 
1852.000000	78.903818 
1851.000000	78.907449 
1850.000000	78.910061 
1849.000000	78.911452 
1848.000000	78.912699 
1847.000000	78.914835 
1846.000000	78.917735 
1845.000000	78.920844 
1844.000000	78.924256 
1843.000000	78.928570 
1842.000000	78.933228 
1841.000000	78.936764 
1840.000000	78.938608 
1839.000000	78.939755 
1838.000000	78.941812 
1837.000000	78.944783 
1836.000000	78.947480 
1835.000000	78.949624 
1834.000000	78.951676 
1833.000000	78.954113 
1832.000000	78.957161 
1831.000000	78.960266 
1830.000000	78.962730 
1829.000000	78.964144 
1828.000000	78.964595 
1827.000000	78.964544 
1826.000000	78.964148 
1825.000000	78.963424 
1824.000000	78.962824 
1823.000000	78.963810 
1822.000000	78.967378 
1821.000000	78.972347 
1820.000000	78.976296 
1819.000000	78.978633 
1818.000000	78.981109 
1817.000000	78.983620 
1816.000000	78.984196 
1815.000000	78.982802 
1814.000000	78.981374 
1813.000000	78.980935 
1812.000000	78.980659 
1811.000000	78.981768 
1810.000000	78.987114 
1809.000000	78.995585 
1808.000000	79.002924 
1807.000000	79.007352 
1806.000000	79.010809 
1805.000000	79.014367 
1804.000000	79.016980 
1803.000000	79.018412 
1802.000000	79.020447 
1801.000000	79.024675 
1800.000000	79.028319 
1799.000000	79.028437 
1798.000000	79.026946 
1797.000000	79.027076 
1796.000000	79.029862 
1795.000000	79.034681 
1794.000000	79.041229 
1793.000000	79.049243 
1792.000000	79.056872 
1791.000000	79.062401 
1790.000000	79.065602 
1789.000000	79.067807 
1788.000000	79.072153 
1787.000000	79.081319 
1786.000000	79.094620 
1785.000000	79.106839 
1784.000000	79.114163 
1783.000000	79.118282 
1782.000000	79.121945 
1781.000000	79.125671 
1780.000000	79.126747 
1779.000000	79.125543 
1778.000000	79.127666 
1777.000000	79.136731 
1776.000000	79.150176 
1775.000000	79.162578 
1774.000000	79.173137 
1773.000000	79.185739 
1772.000000	79.199831 
1771.000000	79.211173 
1770.000000	79.222530 
1769.000000	79.240063 
1768.000000	79.264634 
1767.000000	79.290194 
1766.000000	79.311040 
1765.000000	79.328486 
1764.000000	79.346898 
1763.000000	79.368979 
1762.000000	79.394535 
1761.000000	79.420476 
1760.000000	79.443100 
1759.000000	79.463529 
1758.000000	79.485656 
1757.000000	79.511210 
1756.000000	79.536012 
1755.000000	79.554297 
1754.000000	79.567267 
1753.000000	79.580058 
1752.000000	79.594543 
1751.000000	79.609416 
1750.000000	79.625998 
1749.000000	79.646462 
1748.000000	79.669177 
1747.000000	79.688592 
1746.000000	79.702729 
1745.000000	79.716240 
1744.000000	79.731517 
1743.000000	79.745486 
1742.000000	79.754913 
1741.000000	79.760093 
1740.000000	79.762775 
1739.000000	79.764111 
1738.000000	79.763747 
1737.000000	79.758844 
1736.000000	79.744255 
1735.000000	79.715344 
1734.000000	79.676991 
1733.000000	79.646084 
1732.000000	79.633097 
1731.000000	79.633881 
1730.000000	79.640212 
1729.000000	79.644495 
1728.000000	79.642084 
1727.000000	79.632244 
1726.000000	79.618005 
1725.000000	79.603279 
1724.000000	79.588801 
1723.000000	79.575688 
1722.000000	79.565317 
1721.000000	79.555706 
1720.000000	79.542017 
1719.000000	79.521178 
1718.000000	79.496139 
1717.000000	79.471563 
1716.000000	79.450390 
1715.000000	79.435559 
1714.000000	79.426848 
1713.000000	79.418350 
1712.000000	79.404439 
1711.000000	79.385043 
1710.000000	79.362503 
1709.000000	79.338664 
1708.000000	79.315036 
1707.000000	79.293730 
1706.000000	79.277440 
1705.000000	79.264330 
1704.000000	79.249823 
1703.000000	79.232477 
1702.000000	79.214243 
1701.000000	79.197241 
1700.000000	79.178748 
1699.000000	79.159882 
1698.000000	79.148328 
1697.000000	79.146531 
1696.000000	79.152540 
1695.000000	79.160892 
1694.000000	79.165718 
1693.000000	79.165075 
1692.000000	79.158839 
1691.000000	79.151276 
1690.000000	79.147796 
1689.000000	79.149246 
1688.000000	79.150686 
1687.000000	79.146890 
1686.000000	79.140442 
1685.000000	79.136910 
1684.000000	79.137193 
1683.000000	79.138142 
1682.000000	79.138235 
1681.000000	79.138667 
1680.000000	79.141118 
1679.000000	79.145778 
1678.000000	79.152634 
1677.000000	79.162041 
1676.000000	79.171559 
1675.000000	79.175702 
1674.000000	79.174486 
1673.000000	79.175167 
1672.000000	79.179470 
1671.000000	79.183925 
1670.000000	79.186359 
1669.000000	79.188741 
1668.000000	79.193096 
1667.000000	79.196002 
1666.000000	79.194809 
1665.000000	79.191172 
1664.000000	79.189063 
1663.000000	79.191331 
1662.000000	79.196294 
1661.000000	79.202323 
1660.000000	79.209339 
1659.000000	79.215867 
1658.000000	79.220788 
1657.000000	79.224263 
1656.000000	79.225380 
1655.000000	79.221502 
1654.000000	79.214104 
1653.000000	79.206062 
1652.000000	79.201349 
1651.000000	79.204843 
1650.000000	79.212429 
1649.000000	79.218441 
1648.000000	79.222154 
1647.000000	79.224188 
1646.000000	79.225604 
1645.000000	79.227013 
1644.000000	79.228271 
1643.000000	79.228172 
1642.000000	79.225476 
1641.000000	79.221520 
1640.000000	79.218467 
1639.000000	79.216696 
1638.000000	79.215246 
1637.000000	79.213972 
1636.000000	79.213724 
1635.000000	79.213682 
1634.000000	79.214056 
1633.000000	79.215358 
1632.000000	79.216827 
1631.000000	79.218139 
1630.000000	79.219122 
1629.000000	79.219698 
1628.000000	79.220273 
1627.000000	79.220895 
1626.000000	79.220524 
1625.000000	79.218896 
1624.000000	79.217371 
1623.000000	79.217527 
1622.000000	79.218954 
1621.000000	79.220723 
1620.000000	79.222046 
1619.000000	79.221679 
1618.000000	79.219175 
1617.000000	79.215493 
1616.000000	79.213674 
1615.000000	79.215442 
1614.000000	79.218758 
1613.000000	79.221381 
1612.000000	79.224256 
1611.000000	79.228605 
1610.000000	79.232918 
1609.000000	79.235970 
1608.000000	79.239136 
1607.000000	79.243109 
1606.000000	79.245986 
1605.000000	79.247716 
1604.000000	79.250283 
1603.000000	79.253994 
1602.000000	79.257330 
1601.000000	79.258988 
1600.000000	79.259485 
1599.000000	79.260279 
1598.000000	79.262629 
1597.000000	79.266911 
1596.000000	79.272426 
1595.000000	79.278294 
1594.000000	79.284033 
1593.000000	79.289391 
1592.000000	79.293962 
1591.000000	79.297412 
1590.000000	79.300005 
1589.000000	79.302571 
1588.000000	79.305569 
1587.000000	79.308823 
1586.000000	79.311714 
1585.000000	79.314075 
1584.000000	79.316635 
1583.000000	79.319492 
1582.000000	79.322617 
1581.000000	79.326756 
1580.000000	79.332139 
1579.000000	79.337381 
1578.000000	79.341371 
1577.000000	79.344485 
1576.000000	79.347239 
1575.000000	79.349708 
1574.000000	79.352059 
1573.000000	79.354339 
1572.000000	79.356264 
1571.000000	79.358156 
1570.000000	79.360530 
1569.000000	79.363563 
1568.000000	79.366873 
1567.000000	79.369565 
1566.000000	79.371749 
1565.000000	79.374670 
1564.000000	79.379015 
1563.000000	79.383308 
1562.000000	79.385756 
1561.000000	79.385939 
1560.000000	79.385380 
1559.000000	79.385964 
1558.000000	79.388362 
1557.000000	79.392935 
1556.000000	79.398336 
1555.000000	79.402091 
1554.000000	79.403669 
1553.000000	79.405222 
1552.000000	79.408124 
1551.000000	79.411310 
1550.000000	79.413455 
1549.000000	79.413874 
1548.000000	79.412869 
1547.000000	79.411207 
1546.000000	79.409867 
1545.000000	79.410358 
1544.000000	79.413261 
1543.000000	79.417086 
1542.000000	79.420130 
1541.000000	79.421033 
1540.000000	79.418167 
1539.000000	79.412806 
1538.000000	79.409570 
1537.000000	79.409709 
1536.000000	79.410699 
1535.000000	79.410593 
1534.000000	79.409928 
1533.000000	79.410620 
1532.000000	79.412022 
1531.000000	79.412148 
1530.000000	79.411014 
1529.000000	79.409884 
1528.000000	79.409738 
1527.000000	79.410632 
1526.000000	79.411883 
1525.000000	79.412736 
1524.000000	79.412403 
1523.000000	79.410465 
1522.000000	79.408161 
1521.000000	79.407436 
1520.000000	79.408260 
1519.000000	79.409463 
1518.000000	79.411188 
1517.000000	79.413906 
1516.000000	79.416292 
1515.000000	79.416817 
1514.000000	79.416731 
1513.000000	79.418033 
1512.000000	79.420206 
1511.000000	79.421463 
1510.000000	79.421379 
1509.000000	79.421112 
1508.000000	79.422605 
1507.000000	79.427001 
1506.000000	79.430542 
1505.000000	79.430889 
1504.000000	79.431506 
1503.000000	79.433642 
1502.000000	79.436516 
1501.000000	79.439855 
1500.000000	79.443443 
1499.000000	79.447376 
1498.000000	79.452675 
1497.000000	79.459309 
1496.000000	79.463858 
1495.000000	79.464412 
1494.000000	79.463312 
1493.000000	79.463328 
1492.000000	79.465097 
1491.000000	79.468573 
1490.000000	79.474080 
1489.000000	79.480324 
1488.000000	79.484109 
1487.000000	79.485448 
1486.000000	79.486351 
1485.000000	79.486870 
1484.000000	79.486638 
1483.000000	79.485476 
1482.000000	79.484140 
1481.000000	79.483539 
1480.000000	79.484800 
1479.000000	79.489756 
1478.000000	79.499309 
1477.000000	79.510182 
1476.000000	79.516534 
1475.000000	79.517044 
1474.000000	79.517122 
1473.000000	79.523576 
1472.000000	79.534415 
1471.000000	79.542169 
1470.000000	79.546436 
1469.000000	79.551458 
1468.000000	79.558356 
1467.000000	79.565534 
1466.000000	79.572420 
1465.000000	79.581412 
1464.000000	79.592598 
1463.000000	79.601849 
1462.000000	79.607622 
1461.000000	79.612036 
1460.000000	79.617718 
1459.000000	79.625103 
1458.000000	79.631834 
1457.000000	79.630612 
1456.000000	79.615826 
1455.000000	79.595252 
1454.000000	79.581098 
1453.000000	79.576524 
1452.000000	79.575686 
1451.000000	79.571955 
1450.000000	79.567275 
1449.000000	79.568787 
1448.000000	79.576700 
1447.000000	79.582417 
1446.000000	79.580756 
1445.000000	79.577982 
1444.000000	79.579744 
1443.000000	79.583068 
1442.000000	79.582931 
1441.000000	79.579151 
1440.000000	79.574815 
1439.000000	79.571788 
1438.000000	79.571385 
1437.000000	79.573764 
1436.000000	79.575372 
1435.000000	79.572509 
1434.000000	79.568294 
1433.000000	79.567321 
1432.000000	79.569307 
1431.000000	79.570800 
1430.000000	79.569947 
1429.000000	79.566551 
1428.000000	79.559516 
1427.000000	79.548415 
1426.000000	79.534629 
1425.000000	79.521593 
1424.000000	79.510822 
1423.000000	79.500444 
1422.000000	79.489013 
1421.000000	79.476270 
1420.000000	79.459448 
1419.000000	79.434430 
1418.000000	79.403899 
1417.000000	79.374821 
1416.000000	79.349380 
1415.000000	79.324534 
1414.000000	79.297285 
1413.000000	79.268780 
1412.000000	79.243297 
1411.000000	79.223908 
1410.000000	79.210065 
1409.000000	79.199049 
1408.000000	79.189906 
1407.000000	79.185040 
1406.000000	79.187474 
1405.000000	79.199489 
1404.000000	79.219842 
1403.000000	79.242648 
1402.000000	79.263001 
1401.000000	79.281055 
1400.000000	79.299294 
1399.000000	79.315539 
1398.000000	79.319409 
1397.000000	79.298934 
1396.000000	79.253374 
1395.000000	79.204099 
1394.000000	79.185763 
1393.000000	79.215069 
1392.000000	79.277612 
1391.000000	79.345057 
1390.000000	79.396918 
1389.000000	79.429136 
1388.000000	79.449067 
1387.000000	79.464753 
1386.000000	79.478225 
1385.000000	79.489295 
1384.000000	79.500038 
1383.000000	79.513290 
1382.000000	79.530929 
1381.000000	79.553105 
1380.000000	79.577630 
1379.000000	79.600467 
1378.000000	79.619212 
1377.000000	79.635934 
1376.000000	79.654900 
1375.000000	79.677544 
1374.000000	79.700786 
1373.000000	79.720425 
1372.000000	79.734980 
1371.000000	79.746397 
1370.000000	79.758093 
1369.000000	79.773323 
1368.000000	79.793100 
1367.000000	79.814274 
1366.000000	79.831616 
1365.000000	79.842046 
1364.000000	79.846514 
1363.000000	79.849475 
1362.000000	79.855139 
1361.000000	79.862809 
1360.000000	79.868835 
1359.000000	79.872463 
1358.000000	79.877115 
1357.000000	79.886102 
1356.000000	79.898160 
1355.000000	79.908684 
1354.000000	79.915226 
1353.000000	79.918915 
1352.000000	79.920154 
1351.000000	79.917639 
1350.000000	79.912789 
1349.000000	79.910336 
1348.000000	79.912071 
1347.000000	79.914958 
1346.000000	79.916052 
1345.000000	79.914964 
1344.000000	79.910958 
1343.000000	79.901758 
1342.000000	79.886979 
1341.000000	79.870307 
1340.000000	79.856711 
1339.000000	79.848003 
1338.000000	79.841958 
1337.000000	79.835187 
1336.000000	79.825522 
1335.000000	79.813372 
1334.000000	79.802754 
1333.000000	79.798814 
1332.000000	79.802277 
1331.000000	79.807808 
1330.000000	79.809001 
1329.000000	79.803960 
1328.000000	79.795665 
1327.000000	79.788960 
1326.000000	79.787272 
1325.000000	79.789672 
1324.000000	79.790609 
1323.000000	79.784330 
1322.000000	79.770750 
1321.000000	79.755969 
1320.000000	79.746429 
1319.000000	79.743682 
1318.000000	79.744980 
1317.000000	79.747075 
1316.000000	79.747952 
1315.000000	79.746259 
1314.000000	79.741669 
1313.000000	79.735849 
1312.000000	79.731164 
1311.000000	79.728039 
1310.000000	79.724819 
1309.000000	79.720419 
1308.000000	79.716107 
1307.000000	79.714192 
1306.000000	79.715091 
1305.000000	79.716155 
1304.000000	79.713731 
1303.000000	79.706219 
1302.000000	79.695371 
1301.000000	79.684699 
1300.000000	79.676497 
1299.000000	79.670348 
1298.000000	79.664180 
1297.000000	79.656607 
1296.000000	79.648420 
1295.000000	79.641806 
1294.000000	79.637566 
1293.000000	79.633294 
1292.000000	79.625417 
1291.000000	79.613345 
1290.000000	79.600420 
1289.000000	79.590017 
1288.000000	79.581984 
1287.000000	79.573812 
1286.000000	79.564046 
1285.000000	79.553381 
1284.000000	79.543583 
1283.000000	79.536413 
1282.000000	79.531965 
1281.000000	79.526891 
1280.000000	79.516225 
1279.000000	79.498591 
1278.000000	79.478498 
1277.000000	79.462058 
1276.000000	79.451110 
1275.000000	79.442644 
1274.000000	79.432451 
1273.000000	79.417583 
1272.000000	79.396794 
1271.000000	79.371297 
1270.000000	79.344914 
1269.000000	79.321646 
1268.000000	79.303046 
1267.000000	79.288451 
1266.000000	79.276219 
1265.000000	79.263402 
1264.000000	79.245785 
1263.000000	79.220629 
1262.000000	79.189393 
1261.000000	79.156693 
1260.000000	79.127170 
1259.000000	79.103551 
1258.000000	79.085877 
1257.000000	79.071691 
1256.000000	79.058398 
1255.000000	79.046034 
1254.000000	79.035758 
1253.000000	79.025293 
1252.000000	79.009860 
1251.000000	78.990208 
1250.000000	78.975845 
1249.000000	78.975939 
1248.000000	78.989204 
1247.000000	79.005634 
1246.000000	79.015471 
1245.000000	79.013145 
1244.000000	78.997090 
1243.000000	78.973747 
1242.000000	78.959896 
1241.000000	78.971270 
1240.000000	79.006067 
1239.000000	79.044906 
1238.000000	79.069725 
1237.000000	79.078002 
1236.000000	79.077104 
1235.000000	79.072884 
1234.000000	79.068455 
1233.000000	79.067398 
1232.000000	79.070449 
1231.000000	79.071402 
1230.000000	79.062756 
1229.000000	79.044741 
1228.000000	79.024046 
1227.000000	79.004184 
1226.000000	78.981405 
1225.000000	78.950667 
1224.000000	78.912740 
1223.000000	78.875245 
1222.000000	78.848802 
1221.000000	78.841684 
1220.000000	78.854683 
1219.000000	78.878418 
1218.000000	78.896431 
1217.000000	78.893793 
1216.000000	78.865109 
1215.000000	78.816515 
1214.000000	78.760696 
1213.000000	78.708085 
1212.000000	78.661508 
1211.000000	78.618490 
1210.000000	78.576672 
1209.000000	78.535464 
1208.000000	78.494240 
1207.000000	78.452292 
1206.000000	78.410608 
1205.000000	78.370560 
1204.000000	78.329823 
1203.000000	78.282406 
1202.000000	78.224689 
1201.000000	78.159957 
1200.000000	78.095555 
1199.000000	78.036293 
1198.000000	77.981232 
1197.000000	77.925922 
1196.000000	77.866888 
1195.000000	77.804675 
1194.000000	77.743352 
1193.000000	77.686747 
1192.000000	77.634979 
1191.000000	77.584797 
1190.000000	77.532993 
1189.000000	77.479279 
1188.000000	77.426401 
1187.000000	77.377873 
1186.000000	77.334701 
1185.000000	77.293525 
1184.000000	77.248908 
1183.000000	77.198610 
1182.000000	77.145812 
1181.000000	77.094786 
1180.000000	77.045397 
1179.000000	76.993855 
1178.000000	76.937939 
1177.000000	76.878521 
1176.000000	76.815866 
1175.000000	76.747657 
1174.000000	76.672250 
1173.000000	76.591899 
1172.000000	76.511257 
1171.000000	76.433949 
1170.000000	76.361465 
1169.000000	76.293789 
1168.000000	76.229662 
1167.000000	76.167379 
1166.000000	76.107648 
1165.000000	76.056150 
1164.000000	76.021979 
1163.000000	76.012577 
1162.000000	76.029489 
1161.000000	76.067356 
1160.000000	76.115162 
1159.000000	76.159144 
1158.000000	76.187567 
1157.000000	76.194350 
1156.000000	76.178314 
1155.000000	76.140937 
1154.000000	76.086941 
1153.000000	76.025216 
1152.000000	75.964814 
1151.000000	75.908533 
1150.000000	75.852556 
1149.000000	75.793431 
1148.000000	75.732952 
1147.000000	75.674466 
1146.000000	75.616787 
1145.000000	75.555050 
1144.000000	75.487022 
1143.000000	75.415862 
1142.000000	75.346444 
1141.000000	75.280862 
1140.000000	75.217721 
1139.000000	75.153692 
1138.000000	75.085179 
1137.000000	75.010412 
1136.000000	74.931082 
1135.000000	74.851152 
1134.000000	74.773626 
1133.000000	74.698967 
1132.000000	74.626101 
1131.000000	74.553240 
1130.000000	74.477972 
1129.000000	74.398780 
1128.000000	74.316851 
1127.000000	74.234662 
1126.000000	74.152826 
1125.000000	74.070380 
1124.000000	73.988008 
1123.000000	73.908230 
1122.000000	73.831936 
1121.000000	73.757480 
1120.000000	73.683909 
1119.000000	73.612337 
1118.000000	73.543053 
1117.000000	73.473540 
1116.000000	73.400248 
1115.000000	73.320706 
1114.000000	73.234429 
1113.000000	73.144590 
1112.000000	73.058220 
1111.000000	72.980518 
1110.000000	72.908645 
1109.000000	72.835413 
1108.000000	72.759323 
1107.000000	72.686674 
1106.000000	72.622740 
1105.000000	72.565324 
1104.000000	72.508988 
1103.000000	72.451916 
1102.000000	72.396594 
1101.000000	72.346568 
1100.000000	72.304626 
1099.000000	72.270248 
1098.000000	72.237585 
1097.000000	72.198689 
1096.000000	72.150073 
1095.000000	72.093156 
1094.000000	72.026791 
1093.000000	71.943692 
1092.000000	71.837866 
1091.000000	71.713557 
1090.000000	71.583546 
1089.000000	71.458835 
1088.000000	71.341615 
1087.000000	71.227208 
1086.000000	71.110708 
1085.000000	70.992069 
1084.000000	70.875640 
1083.000000	70.764566 
1082.000000	70.656829 
1081.000000	70.548912 
1080.000000	70.442156 
1079.000000	70.342023 
1078.000000	70.251832 
1077.000000	70.171372 
1076.000000	70.101026 
1075.000000	70.041860 
1074.000000	69.991273 
1073.000000	69.943594 
1072.000000	69.894367 
1071.000000	69.836974 
1070.000000	69.755645 
1069.000000	69.633673 
1068.000000	69.476064 
1067.000000	69.318131 
1066.000000	69.200785 
1065.000000	69.137262 
1064.000000	69.108184 
1063.000000	69.083022 
1062.000000	69.040568 
1061.000000	68.973736 
1060.000000	68.887514 
1059.000000	68.797792 
1058.000000	68.725386 
1057.000000	68.682875 
1056.000000	68.665012 
1055.000000	68.652692 
1054.000000	68.627380 
1053.000000	68.582467 
1052.000000	68.520652 
1051.000000	68.441879 
1050.000000	68.339033 
1049.000000	68.208940 
1048.000000	68.062383 
1047.000000	67.916002 
1046.000000	67.776324 
1045.000000	67.638663 
1044.000000	67.500190 
1043.000000	67.365807 
1042.000000	67.239399 
1041.000000	67.116707 
1040.000000	66.992486 
1039.000000	66.872088 
1038.000000	66.771394 
1037.000000	66.704360 
1036.000000	66.670736 
1035.000000	66.655270 
1034.000000	66.640233 
1033.000000	66.618999 
1032.000000	66.593350 
1031.000000	66.559004 
1030.000000	66.505859 
1029.000000	66.439458 
1028.000000	66.390549 
1027.000000	66.388264 
1026.000000	66.427537 
1025.000000	66.475812 
1024.000000	66.510016 
1023.000000	66.532587 
1022.000000	66.552207 
1021.000000	66.566460 
1020.000000	66.568826 
1019.000000	66.560294 
1018.000000	66.547206 
1017.000000	66.535418 
1016.000000	66.531255 
1015.000000	66.540563 
1014.000000	66.561581 
1013.000000	66.584360 
1012.000000	66.600981 
1011.000000	66.611784 
1010.000000	66.620508 
1009.000000	66.629873 
1008.000000	66.643571 
1007.000000	66.665392 
1006.000000	66.693294 
1005.000000	66.720307 
1004.000000	66.744084 
1003.000000	66.770117 
1002.000000	66.803226 
1001.000000	66.841372 
1000.000000	66.880426 
999.000000	 66.920243 
998.000000	 66.963363 
997.000000	 67.011320 
996.000000	 67.063827 
995.000000	 67.118258 
994.000000	 67.169388 
993.000000	 67.213648 
992.000000	 67.254406 
991.000000	 67.299296 
990.000000	 67.351876 
989.000000	 67.409370 
988.000000	 67.468411 
987.000000	 67.529393 
986.000000	 67.595538 
985.000000	 67.671130 
984.000000	 67.759543 
983.000000	 67.859859 
982.000000	 67.967688 
981.000000	 68.081370 
980.000000	 68.203646 
979.000000	 68.334004 
978.000000	 68.464208 
977.000000	 68.587611 
976.000000	 68.709217 
975.000000	 68.839568 
974.000000	 68.981455 
973.000000	 69.129272 
972.000000	 69.278897 
971.000000	 69.430897 
970.000000	 69.585285 
969.000000	 69.740198 
968.000000	 69.895478 
967.000000	 70.051819 
966.000000	 70.206984 
965.000000	 70.358220 
964.000000	 70.507638 
963.000000	 70.659829 
962.000000	 70.814385 
961.000000	 70.965634 
960.000000	 71.109563 
959.000000	 71.246583 
958.000000	 71.377635 
957.000000	 71.501748 
956.000000	 71.618253 
955.000000	 71.728525 
954.000000	 71.834548 
953.000000	 71.936740 
952.000000	 72.032750 
951.000000	 72.118231 
950.000000	 72.191017 
949.000000	 72.255452 
948.000000	 72.319664 
947.000000	 72.386869 
946.000000	 72.452286 
945.000000	 72.510291 
944.000000	 72.560841 
943.000000	 72.606696 
942.000000	 72.648681 
941.000000	 72.687229 
940.000000	 72.724789 
939.000000	 72.762404 
938.000000	 72.797172 
937.000000	 72.827602 
936.000000	 72.858430 
935.000000	 72.894867 
934.000000	 72.934429 
933.000000	 72.970331 
932.000000	 73.001759 
931.000000	 73.035058 
930.000000	 73.074801 
929.000000	 73.118739 
928.000000	 73.162126 
927.000000	 73.202446 
926.000000	 73.238956 
925.000000	 73.271638 
924.000000	 73.302340 
923.000000	 73.334301 
922.000000	 73.368879 
921.000000	 73.403884 
920.000000	 73.435579 
919.000000	 73.461292 
918.000000	 73.480497 
917.000000	 73.494873 
916.000000	 73.507387 
915.000000	 73.520873 
914.000000	 73.538106 
913.000000	 73.563084 
912.000000	 73.599517 
911.000000	 73.646512 
910.000000	 73.698626 
909.000000	 73.753138 
908.000000	 73.815101 
907.000000	 73.891903 
906.000000	 73.984523 
905.000000	 74.087284 
904.000000	 74.194960 
903.000000	 74.307264 
902.000000	 74.426922 
901.000000	 74.555394 
900.000000	 74.690026 
899.000000	 74.824754 
898.000000	 74.954883 
897.000000	 75.081426 
896.000000	 75.208247 
895.000000	 75.335205 
894.000000	 75.457897 
893.000000	 75.574520 
892.000000	 75.688679 
891.000000	 75.804603 
890.000000	 75.924147 
889.000000	 76.049353 
888.000000	 76.181857 
887.000000	 76.316685 
886.000000	 76.442100 
885.000000	 76.549986 
884.000000	 76.642653 
883.000000	 76.726038 
882.000000	 76.800485 
881.000000	 76.863129 
880.000000	 76.916057 
879.000000	 76.965524 
878.000000	 77.013656 
877.000000	 77.057136 
876.000000	 77.095274 
875.000000	 77.133935 
874.000000	 77.178874 
873.000000	 77.228967 
872.000000	 77.279601 
871.000000	 77.330867 
870.000000	 77.388674 
869.000000	 77.457702 
868.000000	 77.536205 
867.000000	 77.619102 
866.000000	 77.704358 
865.000000	 77.793967 
864.000000	 77.888610 
863.000000	 77.983477 
862.000000	 78.070768 
861.000000	 78.145721 
860.000000	 78.209721 
859.000000	 78.268433 
858.000000	 78.327138 
857.000000	 78.386810 
856.000000	 78.444704 
855.000000	 78.499539 
854.000000	 78.554301 
853.000000	 78.610763 
852.000000	 78.662564 
851.000000	 78.699474 
850.000000	 78.720481 
849.000000	 78.737933 
848.000000	 78.765065 
847.000000	 78.801894 
846.000000	 78.836056 
845.000000	 78.854975 
844.000000	 78.854717 
843.000000	 78.840636 
842.000000	 78.824028 
841.000000	 78.816047 
840.000000	 78.819026 
839.000000	 78.821990 
838.000000	 78.808217 
837.000000	 78.770700 
836.000000	 78.720334 
835.000000	 78.677389 
834.000000	 78.653376 
833.000000	 78.641308 
832.000000	 78.624928 
831.000000	 78.597200 
830.000000	 78.567937 
829.000000	 78.552701 
828.000000	 78.557009 
827.000000	 78.573516 
826.000000	 78.590999 
825.000000	 78.601269 
824.000000	 78.599720 
823.000000	 78.586672 
822.000000	 78.569261 
821.000000	 78.555310 
820.000000	 78.543097 
819.000000	 78.521642 
818.000000	 78.482486 
817.000000	 78.427524 
816.000000	 78.363652 
815.000000	 78.292842 
814.000000	 78.209863 
813.000000	 78.107599 
812.000000	 77.980896 
811.000000	 77.824363 
810.000000	 77.628725 
809.000000	 77.383245 
808.000000	 77.085285 
807.000000	 76.747367 
806.000000	 76.391153 
805.000000	 76.033352 
804.000000	 75.680783 
803.000000	 75.338933 
802.000000	 75.019877 
801.000000	 74.740217 
800.000000	 74.515395 
799.000000	 74.356744 
798.000000	 74.269245 
797.000000	 74.249787 
796.000000	 74.288878 
795.000000	 74.373418 
794.000000	 74.486378 
793.000000	 74.607000 
792.000000	 74.717341 
791.000000	 74.810367 
790.000000	 74.887823 
789.000000	 74.947834 
788.000000	 74.978784 
787.000000	 74.969684 
786.000000	 74.922571 
785.000000	 74.847675 
784.000000	 74.748602 
783.000000	 74.621495 
782.000000	 74.471219 
781.000000	 74.321615 
780.000000	 74.205120 
779.000000	 74.144289 
778.000000	 74.143969 
777.000000	 74.196496 
776.000000	 74.289692 
775.000000	 74.411332 
774.000000	 74.551805 
773.000000	 74.705513 
772.000000	 74.868514 
771.000000	 75.034036 
770.000000	 75.191443 
769.000000	 75.330101 
768.000000	 75.444508 
767.000000	 75.537520 
766.000000	 75.619029 
765.000000	 75.698399 
764.000000	 75.776125 
763.000000	 75.844775 
762.000000	 75.899388 
761.000000	 75.944235 
760.000000	 75.987520 
759.000000	 76.032556 
758.000000	 76.076960 
757.000000	 76.118226 
756.000000	 76.156698 
755.000000	 76.193810 
754.000000	 76.230440 
753.000000	 76.268124 
752.000000	 76.311463 
751.000000	 76.368207 
750.000000	 76.444377 
749.000000	 76.537049 
748.000000	 76.633741 
747.000000	 76.722636 
746.000000	 76.802688 
745.000000	 76.880062 
744.000000	 76.956727 
743.000000	 77.029303 
742.000000	 77.098713 
741.000000	 77.172354 
740.000000	 77.254233 
739.000000	 77.340367 
738.000000	 77.426854 
737.000000	 77.514644 
736.000000	 77.601870 
735.000000	 77.678860 
734.000000	 77.737261 
733.000000	 77.779806 
732.000000	 77.816446 
731.000000	 77.854843 
730.000000	 77.898832 
729.000000	 77.950624 
728.000000	 78.007222 
727.000000	 78.058495 
726.000000	 78.096367 
725.000000	 78.123579 
724.000000	 78.147825 
723.000000	 78.170739 
722.000000	 78.189714 
721.000000	 78.208446 
720.000000	 78.237181 
719.000000	 78.280460 
718.000000	 78.330307 
717.000000	 78.373958 
716.000000	 78.404891 
715.000000	 78.425642 
714.000000	 78.442393 
713.000000	 78.456988 
712.000000	 78.463475 
711.000000	 78.454193 
710.000000	 78.430153 
709.000000	 78.401645 
708.000000	 78.376922 
707.000000	 78.354380 
706.000000	 78.328747 
705.000000	 78.299925 
704.000000	 78.268680 
703.000000	 78.225624 
702.000000	 78.151325 
701.000000	 78.030355 
700.000000	 77.863407 
699.000000	 77.664512 
698.000000	 77.450864 
697.000000	 77.239995 
696.000000	 77.056927 
695.000000	 76.937645 
694.000000	 76.914586 
693.000000	 76.993371 
692.000000	 77.143969 
691.000000	 77.317977 
690.000000	 77.478778 
689.000000	 77.613507 
688.000000	 77.722326 
687.000000	 77.809901 
686.000000	 77.886398 
685.000000	 77.963692 
684.000000	 78.045233 
683.000000	 78.125587 
682.000000	 78.202151 
681.000000	 78.279155 
680.000000	 78.357563 
679.000000	 78.429758 
678.000000	 78.489598 
677.000000	 78.543030 
676.000000	 78.601636 
675.000000	 78.668306 
674.000000	 78.733956 
673.000000	 78.784462 
672.000000	 78.806459 
671.000000	 78.794634 
670.000000	 78.762376 
669.000000	 78.755045 
668.000000	 78.831180 
667.000000	 78.977653 
666.000000	 79.123240 
665.000000	 79.243250 
664.000000	 79.347314 
663.000000	 79.438884 
662.000000	 79.517732 
661.000000	 79.592130 
660.000000	 79.670554 
659.000000	 79.749417 
658.000000	 79.822804 
657.000000	 79.891607 
656.000000	 79.948470 
655.000000	 79.973861 
654.000000	 79.966833 
653.000000	 79.957506 
652.000000	 79.967016 
651.000000	 79.979109 
650.000000	 79.974491 

