PE IR                   SPECTRUM    ASCII       PEDS        1.60        
  -1
~SP.SP
22/12/06
16:27:11.00
23/01/09
15:06:47.00
Administrator

650.000000
4









FRONTIER FT-IR,CPU32 MAIN 00.09.9951 07-SEPTEMBER-2011 11:49:41
MIR TGS
MIR
OPTKBR
90694
0.200000

4.000000
STRONG
RATIO
SPECTRUM
MAGNITUDE
MIRACLE ATR
DOUBLE

COMBINED


0


#HDR
-1
-1
#GR
CM-1
%T
0.00002384185791015625
0.0
4000.000000
-1.000000
3351
8
86.664221
81.915594
#DATA
4000.000000	86.651608 
3999.000000	86.648553 
3998.000000	86.645609 
3997.000000	86.643262 
3996.000000	86.641204 
3995.000000	86.638247 
3994.000000	86.633479 
3993.000000	86.627157 
3992.000000	86.620573 
3991.000000	86.615251 
3990.000000	86.612285 
3989.000000	86.612057 
3988.000000	86.614088 
3987.000000	86.617215 
3986.000000	86.620159 
3985.000000	86.622182 
3984.000000	86.623107 
3983.000000	86.622919 
3982.000000	86.621561 
3981.000000	86.618806 
3980.000000	86.614271 
3979.000000	86.607923 
3978.000000	86.600600 
3977.000000	86.593721 
3976.000000	86.588297 
3975.000000	86.584395 
3974.000000	86.581494 
3973.000000	86.579090 
3972.000000	86.576874 
3971.000000	86.574732 
3970.000000	86.572923 
3969.000000	86.572041 
3968.000000	86.572302 
3967.000000	86.572887 
3966.000000	86.572500 
3965.000000	86.570525 
3964.000000	86.567162 
3963.000000	86.562586 
3962.000000	86.556627 
3961.000000	86.549563 
3960.000000	86.543045 
3959.000000	86.539717 
3958.000000	86.541405 
3957.000000	86.547460 
3956.000000	86.554655 
3955.000000	86.558847 
3954.000000	86.557236 
3953.000000	86.549284 
3952.000000	86.536233 
3951.000000	86.520330 
3950.000000	86.504333 
3949.000000	86.490337 
3948.000000	86.478195 
3947.000000	86.466166 
3946.000000	86.454104 
3945.000000	86.445125 
3944.000000	86.442919 
3943.000000	86.447868 
3942.000000	86.456361 
3941.000000	86.463873 
3940.000000	86.468260 
3939.000000	86.469983 
3938.000000	86.470228 
3937.000000	86.469357 
3936.000000	86.466901 
3935.000000	86.462552 
3934.000000	86.456771 
3933.000000	86.450028 
3932.000000	86.441911 
3931.000000	86.431930 
3930.000000	86.421764 
3929.000000	86.415497 
3928.000000	86.416432 
3927.000000	86.423393 
3926.000000	86.430366 
3925.000000	86.430840 
3924.000000	86.422801 
3923.000000	86.409126 
3922.000000	86.393726 
3921.000000	86.378948 
3920.000000	86.367007 
3919.000000	86.360764 
3918.000000	86.361463 
3917.000000	86.367303 
3916.000000	86.375600 
3915.000000	86.385510 
3914.000000	86.397377 
3913.000000	86.410034 
3912.000000	86.420255 
3911.000000	86.424517 
3910.000000	86.420702 
3909.000000	86.409703 
3908.000000	86.395954 
3907.000000	86.384335 
3906.000000	86.375302 
3905.000000	86.363130 
3904.000000	86.341890 
3903.000000	86.313023 
3902.000000	86.285154 
3901.000000	86.265178 
3900.000000	86.253900 
3899.000000	86.250299 
3898.000000	86.255285 
3897.000000	86.269081 
3896.000000	86.287531 
3895.000000	86.305770 
3894.000000	86.322668 
3893.000000	86.337519 
3892.000000	86.346556 
3891.000000	86.346803 
3890.000000	86.341585 
3889.000000	86.337525 
3888.000000	86.336343 
3887.000000	86.333380 
3886.000000	86.324829 
3885.000000	86.312517 
3884.000000	86.302625 
3883.000000	86.298769 
3882.000000	86.298709 
3881.000000	86.299439 
3880.000000	86.301400 
3879.000000	86.306517 
3878.000000	86.315341 
3877.000000	86.325262 
3876.000000	86.331872 
3875.000000	86.332864 
3874.000000	86.329827 
3873.000000	86.326943 
3872.000000	86.327173 
3871.000000	86.329017 
3870.000000	86.329106 
3869.000000	86.327500 
3868.000000	86.327258 
3867.000000	86.329136 
3866.000000	86.330894 
3865.000000	86.331890 
3864.000000	86.333888 
3863.000000	86.337500 
3862.000000	86.341298 
3861.000000	86.343866 
3860.000000	86.345491 
3859.000000	86.347463 
3858.000000	86.350537 
3857.000000	86.354722 
3856.000000	86.359611 
3855.000000	86.363908 
3854.000000	86.365964 
3853.000000	86.365545 
3852.000000	86.364946 
3851.000000	86.366154 
3850.000000	86.367888 
3849.000000	86.368344 
3848.000000	86.368105 
3847.000000	86.368480 
3846.000000	86.369610 
3845.000000	86.371160 
3844.000000	86.372937 
3843.000000	86.374851 
3842.000000	86.376907 
3841.000000	86.379288 
3840.000000	86.382082 
3839.000000	86.384893 
3838.000000	86.387200 
3837.000000	86.389107 
3836.000000	86.391273 
3835.000000	86.393893 
3834.000000	86.396359 
3833.000000	86.397908 
3832.000000	86.398369 
3831.000000	86.398281 
3830.000000	86.398604 
3829.000000	86.399856 
3828.000000	86.401477 
3827.000000	86.402412 
3826.000000	86.402460 
3825.000000	86.402912 
3824.000000	86.405373 
3823.000000	86.409646 
3822.000000	86.413093 
3821.000000	86.413313 
3820.000000	86.411891 
3819.000000	86.412906 
3818.000000	86.416172 
3817.000000	86.416857 
3816.000000	86.412923 
3815.000000	86.407372 
3814.000000	86.403896 
3813.000000	86.401603 
3812.000000	86.396437 
3811.000000	86.388903 
3810.000000	86.384517 
3809.000000	86.385810 
3808.000000	86.389431 
3807.000000	86.390362 
3806.000000	86.388564 
3805.000000	86.388833 
3804.000000	86.393335 
3803.000000	86.397876 
3802.000000	86.397017 
3801.000000	86.390677 
3800.000000	86.385370 
3799.000000	86.386241 
3798.000000	86.388519 
3797.000000	86.384871 
3796.000000	86.376146 
3795.000000	86.367770 
3794.000000	86.362163 
3793.000000	86.357224 
3792.000000	86.350052 
3791.000000	86.341009 
3790.000000	86.332596 
3789.000000	86.325983 
3788.000000	86.320487 
3787.000000	86.315696 
3786.000000	86.312043 
3785.000000	86.309839 
3784.000000	86.308824 
3783.000000	86.308798 
3782.000000	86.309394 
3781.000000	86.309532 
3780.000000	86.308166 
3779.000000	86.306056 
3778.000000	86.305506 
3777.000000	86.307233 
3776.000000	86.307950 
3775.000000	86.304237 
3774.000000	86.298549 
3773.000000	86.297226 
3772.000000	86.302523 
3771.000000	86.308792 
3770.000000	86.308534 
3769.000000	86.301390 
3768.000000	86.293065 
3767.000000	86.285371 
3766.000000	86.274560 
3765.000000	86.260664 
3764.000000	86.250788 
3763.000000	86.250467 
3762.000000	86.256446 
3761.000000	86.260158 
3760.000000	86.257299 
3759.000000	86.250942 
3758.000000	86.245781 
3757.000000	86.242586 
3756.000000	86.240216 
3755.000000	86.240381 
3754.000000	86.246384 
3753.000000	86.259082 
3752.000000	86.274769 
3751.000000	86.284169 
3750.000000	86.279369 
3749.000000	86.262109 
3748.000000	86.241513 
3747.000000	86.225016 
3746.000000	86.212724 
3745.000000	86.197110 
3744.000000	86.172278 
3743.000000	86.147342 
3742.000000	86.133480 
3741.000000	86.120960 
3740.000000	86.099225 
3739.000000	86.079439 
3738.000000	86.069328 
3737.000000	86.060641 
3736.000000	86.048940 
3735.000000	86.042436 
3734.000000	86.048819 
3733.000000	86.062561 
3732.000000	86.073181 
3731.000000	86.079066 
3730.000000	86.083562 
3729.000000	86.082102 
3728.000000	86.066016 
3727.000000	86.036960 
3726.000000	86.008618 
3725.000000	85.994168 
3724.000000	85.994302 
3723.000000	85.998107 
3722.000000	85.996799 
3721.000000	85.992992 
3720.000000	85.993386 
3719.000000	85.998338 
3718.000000	86.001591 
3717.000000	85.998450 
3716.000000	85.991067 
3715.000000	85.985867 
3714.000000	85.987429 
3713.000000	85.995126 
3712.000000	86.003777 
3711.000000	86.007962 
3710.000000	86.006992 
3709.000000	86.000762 
3708.000000	85.985685 
3707.000000	85.960781 
3706.000000	85.931989 
3705.000000	85.907202 
3704.000000	85.889866 
3703.000000	85.877560 
3702.000000	85.865061 
3701.000000	85.849066 
3700.000000	85.830635 
3699.000000	85.812009 
3698.000000	85.793232 
3697.000000	85.774125 
3696.000000	85.756987 
3695.000000	85.744760 
3694.000000	85.736997 
3693.000000	85.729862 
3692.000000	85.720733 
3691.000000	85.709555 
3690.000000	85.695823 
3689.000000	85.679205 
3688.000000	85.663095 
3687.000000	85.651982 
3686.000000	85.643991 
3685.000000	85.632595 
3684.000000	85.618278 
3683.000000	85.609782 
3682.000000	85.611206 
3681.000000	85.615106 
3680.000000	85.610543 
3679.000000	85.595541 
3678.000000	85.579025 
3677.000000	85.569259 
3676.000000	85.564554 
3675.000000	85.560049 
3674.000000	85.559704 
3673.000000	85.565099 
3672.000000	85.560681 
3671.000000	85.536323 
3670.000000	85.504734 
3669.000000	85.484452 
3668.000000	85.482855 
3667.000000	85.489154 
3666.000000	85.486560 
3665.000000	85.475760 
3664.000000	85.468877 
3663.000000	85.470688 
3662.000000	85.476978 
3661.000000	85.481337 
3660.000000	85.481273 
3659.000000	85.479680 
3658.000000	85.481084 
3657.000000	85.486547 
3656.000000	85.493402 
3655.000000	85.499861 
3654.000000	85.506188 
3653.000000	85.509886 
3652.000000	85.507982 
3651.000000	85.502416 
3650.000000	85.497789 
3649.000000	85.500982 
3648.000000	85.516185 
3647.000000	85.535347 
3646.000000	85.546639 
3645.000000	85.551393 
3644.000000	85.560409 
3643.000000	85.580203 
3642.000000	85.608395 
3641.000000	85.637519 
3640.000000	85.660432 
3639.000000	85.673695 
3638.000000	85.679310 
3637.000000	85.684102 
3636.000000	85.693688 
3635.000000	85.704940 
3634.000000	85.709135 
3633.000000	85.703443 
3632.000000	85.695283 
3631.000000	85.693275 
3630.000000	85.696505 
3629.000000	85.695157 
3628.000000	85.686331 
3627.000000	85.680773 
3626.000000	85.680933 
3625.000000	85.675702 
3624.000000	85.663664 
3623.000000	85.654034 
3622.000000	85.652136 
3621.000000	85.658311 
3620.000000	85.668941 
3619.000000	85.676671 
3618.000000	85.676329 
3617.000000	85.669808 
3616.000000	85.663194 
3615.000000	85.661903 
3614.000000	85.667233 
3613.000000	85.674656 
3612.000000	85.677950 
3611.000000	85.675234 
3610.000000	85.670620 
3609.000000	85.670961 
3608.000000	85.680262 
3607.000000	85.696580 
3606.000000	85.714183 
3605.000000	85.728535 
3604.000000	85.739496 
3603.000000	85.750006 
3602.000000	85.761513 
3601.000000	85.772186 
3600.000000	85.779458 
3599.000000	85.782482 
3598.000000	85.781696 
3597.000000	85.777720 
3596.000000	85.772467 
3595.000000	85.768420 
3594.000000	85.765600 
3593.000000	85.761438 
3592.000000	85.753776 
3591.000000	85.742889 
3590.000000	85.731121 
3589.000000	85.720463 
3588.000000	85.711267 
3587.000000	85.704449 
3586.000000	85.703126 
3585.000000	85.710352 
3584.000000	85.725812 
3583.000000	85.746234 
3582.000000	85.767690 
3581.000000	85.787563 
3580.000000	85.804851 
3579.000000	85.818634 
3578.000000	85.827774 
3577.000000	85.832967 
3576.000000	85.837865 
3575.000000	85.845953 
3574.000000	85.855545 
3573.000000	85.858938 
3572.000000	85.847627 
3571.000000	85.818502 
3570.000000	85.776015 
3569.000000	85.730509 
3568.000000	85.693867 
3567.000000	85.674287 
3566.000000	85.673021 
3565.000000	85.686072 
3564.000000	85.708854 
3563.000000	85.738264 
3562.000000	85.771104 
3561.000000	85.802646 
3560.000000	85.828078 
3559.000000	85.844768 
3558.000000	85.853174 
3557.000000	85.856082 
3556.000000	85.856864 
3555.000000	85.858163 
3554.000000	85.861156 
3553.000000	85.865015 
3552.000000	85.867225 
3551.000000	85.865192 
3550.000000	85.857459 
3549.000000	85.843612 
3548.000000	85.824400 
3547.000000	85.803045 
3546.000000	85.785668 
3545.000000	85.778531 
3544.000000	85.784518 
3543.000000	85.802024 
3542.000000	85.825949 
3541.000000	85.849704 
3540.000000	85.868050 
3539.000000	85.879419 
3538.000000	85.885905 
3537.000000	85.891038 
3536.000000	85.897166 
3535.000000	85.904548 
3534.000000	85.912264 
3533.000000	85.919176 
3532.000000	85.923992 
3531.000000	85.925291 
3530.000000	85.922305 
3529.000000	85.915583 
3528.000000	85.906732 
3527.000000	85.897527 
3526.000000	85.889526 
3525.000000	85.884377 
3524.000000	85.883629 
3523.000000	85.887773 
3522.000000	85.895714 
3521.000000	85.905656 
3520.000000	85.916434 
3519.000000	85.927790 
3518.000000	85.939464 
3517.000000	85.950131 
3516.000000	85.957446 
3515.000000	85.959467 
3514.000000	85.956385 
3513.000000	85.951055 
3512.000000	85.947649 
3511.000000	85.949119 
3510.000000	85.955429 
3509.000000	85.963716 
3508.000000	85.970276 
3507.000000	85.972978 
3506.000000	85.972058 
3505.000000	85.969314 
3504.000000	85.967016 
3503.000000	85.967043 
3502.000000	85.970282 
3501.000000	85.976411 
3500.000000	85.984238 
3499.000000	85.992310 
3498.000000	85.999153 
3497.000000	86.003618 
3496.000000	86.005658 
3495.000000	86.006663 
3494.000000	86.008596 
3493.000000	86.012587 
3492.000000	86.018258 
3491.000000	86.024203 
3490.000000	86.029068 
3489.000000	86.032319 
3488.000000	86.034242 
3487.000000	86.035582 
3486.000000	86.037118 
3485.000000	86.039222 
3484.000000	86.041598 
3483.000000	86.043481 
3482.000000	86.044336 
3481.000000	86.044520 
3480.000000	86.045148 
3479.000000	86.047095 
3478.000000	86.050198 
3477.000000	86.053528 
3476.000000	86.056462 
3475.000000	86.059328 
3474.000000	86.062689 
3473.000000	86.066237 
3472.000000	86.068918 
3471.000000	86.070193 
3470.000000	86.070678 
3469.000000	86.071434 
3468.000000	86.072962 
3467.000000	86.075214 
3466.000000	86.078237 
3465.000000	86.082145 
3464.000000	86.086369 
3463.000000	86.089599 
3462.000000	86.090931 
3461.000000	86.090753 
3460.000000	86.090489 
3459.000000	86.091402 
3458.000000	86.093689 
3457.000000	86.096687 
3456.000000	86.099731 
3455.000000	86.102787 
3454.000000	86.106218 
3453.000000	86.110114 
3452.000000	86.114075 
3451.000000	86.117553 
3450.000000	86.120217 
3449.000000	86.122030 
3448.000000	86.123240 
3447.000000	86.124352 
3446.000000	86.125830 
3445.000000	86.127685 
3444.000000	86.129581 
3443.000000	86.131478 
3442.000000	86.133906 
3441.000000	86.137306 
3440.000000	86.141245 
3439.000000	86.144646 
3438.000000	86.146805 
3437.000000	86.147928 
3436.000000	86.148694 
3435.000000	86.149602 
3434.000000	86.150862 
3433.000000	86.152535 
3432.000000	86.154528 
3431.000000	86.156618 
3430.000000	86.158565 
3429.000000	86.160268 
3428.000000	86.161889 
3427.000000	86.163823 
3426.000000	86.166277 
3425.000000	86.168818 
3424.000000	86.170556 
3423.000000	86.170970 
3422.000000	86.170517 
3421.000000	86.170410 
3420.000000	86.171906 
3419.000000	86.175677 
3418.000000	86.181265 
3417.000000	86.186782 
3416.000000	86.189839 
3415.000000	86.189541 
3414.000000	86.187536 
3413.000000	86.186647 
3412.000000	86.188088 
3411.000000	86.190587 
3410.000000	86.192253 
3409.000000	86.192546 
3408.000000	86.192114 
3407.000000	86.191472 
3406.000000	86.190478 
3405.000000	86.188841 
3404.000000	86.186482 
3403.000000	86.183293 
3402.000000	86.179201 
3401.000000	86.174856 
3400.000000	86.171908 
3399.000000	86.172049 
3398.000000	86.175540 
3397.000000	86.180708 
3396.000000	86.184941 
3395.000000	86.186447 
3394.000000	86.185179 
3393.000000	86.182453 
3392.000000	86.179964 
3391.000000	86.178896 
3390.000000	86.179589 
3389.000000	86.181631 
3388.000000	86.184197 
3387.000000	86.186607 
3386.000000	86.188683 
3385.000000	86.190520 
3384.000000	86.191958 
3383.000000	86.192461 
3382.000000	86.191687 
3381.000000	86.190063 
3380.000000	86.188604 
3379.000000	86.188036 
3378.000000	86.188088 
3377.000000	86.187785 
3376.000000	86.186517 
3375.000000	86.184727 
3374.000000	86.183381 
3373.000000	86.182733 
3372.000000	86.181862 
3371.000000	86.179686 
3370.000000	86.176312 
3369.000000	86.173176 
3368.000000	86.171616 
3367.000000	86.171485 
3366.000000	86.171358 
3365.000000	86.170017 
3364.000000	86.167616 
3363.000000	86.165424 
3362.000000	86.164436 
3361.000000	86.164269 
3360.000000	86.163505 
3359.000000	86.161193 
3358.000000	86.157877 
3357.000000	86.155027 
3356.000000	86.153461 
3355.000000	86.152560 
3354.000000	86.150998 
3353.000000	86.148129 
3352.000000	86.144562 
3351.000000	86.141610 
3350.000000	86.140283 
3349.000000	86.140670 
3348.000000	86.141758 
3347.000000	86.141887 
3346.000000	86.139928 
3345.000000	86.136186 
3344.000000	86.132126 
3343.000000	86.128913 
3342.000000	86.126328 
3341.000000	86.123378 
3340.000000	86.119628 
3339.000000	86.115575 
3338.000000	86.111885 
3337.000000	86.108886 
3336.000000	86.106914 
3335.000000	86.106493 
3334.000000	86.107644 
3333.000000	86.109208 
3332.000000	86.109458 
3331.000000	86.107508 
3330.000000	86.103819 
3329.000000	86.099474 
3328.000000	86.095194 
3327.000000	86.091217 
3326.000000	86.087758 
3325.000000	86.085107 
3324.000000	86.083269 
3323.000000	86.081623 
3322.000000	86.079105 
3321.000000	86.074879 
3320.000000	86.068854 
3319.000000	86.061674 
3318.000000	86.054430 
3317.000000	86.048304 
3316.000000	86.044086 
3315.000000	86.041466 
3314.000000	86.038800 
3313.000000	86.034318 
3312.000000	86.027880 
3311.000000	86.021217 
3310.000000	86.016121 
3309.000000	86.012597 
3308.000000	86.009219 
3307.000000	86.004898 
3306.000000	85.999795 
3305.000000	85.994648 
3304.000000	85.989959 
3303.000000	85.985971 
3302.000000	85.982770 
3301.000000	85.979987 
3300.000000	85.976712 
3299.000000	85.972162 
3298.000000	85.966364 
3297.000000	85.960044 
3296.000000	85.953977 
3295.000000	85.948515 
3294.000000	85.943563 
3293.000000	85.938799 
3292.000000	85.933995 
3291.000000	85.929280 
3290.000000	85.924914 
3289.000000	85.920695 
3288.000000	85.915871 
3287.000000	85.909971 
3286.000000	85.903602 
3285.000000	85.898123 
3284.000000	85.894345 
3283.000000	85.891771 
3282.000000	85.889082 
3281.000000	85.885322 
3280.000000	85.880337 
3279.000000	85.874382 
3278.000000	85.867756 
3277.000000	85.860876 
3276.000000	85.854302 
3275.000000	85.848403 
3274.000000	85.843101 
3273.000000	85.838109 
3272.000000	85.833352 
3271.000000	85.828999 
3270.000000	85.825159 
3269.000000	85.821798 
3268.000000	85.818935 
3267.000000	85.816573 
3266.000000	85.814315 
3265.000000	85.811430 
3264.000000	85.807542 
3263.000000	85.803032 
3262.000000	85.798467 
3261.000000	85.793814 
3260.000000	85.788552 
3259.000000	85.782527 
3258.000000	85.776410 
3257.000000	85.771147 
3256.000000	85.767092 
3255.000000	85.763793 
3254.000000	85.760472 
3253.000000	85.756587 
3252.000000	85.752040 
3251.000000	85.747001 
3250.000000	85.741615 
3249.000000	85.735885 
3248.000000	85.729818 
3247.000000	85.723669 
3246.000000	85.717999 
3245.000000	85.713368 
3244.000000	85.709777 
3243.000000	85.706329 
3242.000000	85.701639 
3241.000000	85.694920 
3240.000000	85.686777 
3239.000000	85.679006 
3238.000000	85.673124 
3237.000000	85.669177 
3236.000000	85.665972 
3235.000000	85.662242 
3234.000000	85.657611 
3233.000000	85.652441 
3232.000000	85.647312 
3231.000000	85.642740 
3230.000000	85.639012 
3229.000000	85.635956 
3228.000000	85.632905 
3227.000000	85.629083 
3226.000000	85.624115 
3225.000000	85.618292 
3224.000000	85.612451 
3223.000000	85.607512 
3222.000000	85.603848 
3221.000000	85.600980 
3220.000000	85.597843 
3219.000000	85.593615 
3218.000000	85.588310 
3217.000000	85.582656 
3216.000000	85.577442 
3215.000000	85.572940 
3214.000000	85.568841 
3213.000000	85.564585 
3212.000000	85.559762 
3211.000000	85.554276 
3210.000000	85.548245 
3209.000000	85.541897 
3208.000000	85.535629 
3207.000000	85.529974 
3206.000000	85.525244 
3205.000000	85.521150 
3204.000000	85.517019 
3203.000000	85.512466 
3202.000000	85.507681 
3201.000000	85.503090 
3200.000000	85.498950 
3199.000000	85.495279 
3198.000000	85.491872 
3197.000000	85.488341 
3196.000000	85.484415 
3195.000000	85.480247 
3194.000000	85.476278 
3193.000000	85.472700 
3192.000000	85.469157 
3191.000000	85.465093 
3190.000000	85.460375 
3189.000000	85.455433 
3188.000000	85.450881 
3187.000000	85.446988 
3186.000000	85.443496 
3185.000000	85.439805 
3184.000000	85.435461 
3183.000000	85.430493 
3182.000000	85.425372 
3181.000000	85.420635 
3180.000000	85.416468 
3179.000000	85.412657 
3178.000000	85.408851 
3177.000000	85.404928 
3176.000000	85.401037 
3175.000000	85.397325 
3174.000000	85.393701 
3173.000000	85.389906 
3172.000000	85.385801 
3171.000000	85.381490 
3170.000000	85.377155 
3169.000000	85.372907 
3168.000000	85.368837 
3167.000000	85.365096 
3166.000000	85.361754 
3165.000000	85.358590 
3164.000000	85.355181 
3163.000000	85.351296 
3162.000000	85.347075 
3161.000000	85.342879 
3160.000000	85.338950 
3159.000000	85.335257 
3158.000000	85.331623 
3157.000000	85.327898 
3156.000000	85.324038 
3155.000000	85.320138 
3154.000000	85.316418 
3153.000000	85.313091 
3152.000000	85.310187 
3151.000000	85.307562 
3150.000000	85.305065 
3149.000000	85.302610 
3148.000000	85.300033 
3147.000000	85.297035 
3146.000000	85.293424 
3145.000000	85.289371 
3144.000000	85.285357 
3143.000000	85.281673 
3142.000000	85.278068 
3141.000000	85.274091 
3140.000000	85.269804 
3139.000000	85.265933 
3138.000000	85.263163 
3137.000000	85.261411 
3136.000000	85.259844 
3135.000000	85.257602 
3134.000000	85.254447 
3133.000000	85.250757 
3132.000000	85.247193 
3131.000000	85.244233 
3130.000000	85.241894 
3129.000000	85.239776 
3128.000000	85.237506 
3127.000000	85.235112 
3126.000000	85.232773 
3125.000000	85.230303 
3124.000000	85.227237 
3123.000000	85.223479 
3122.000000	85.219472 
3121.000000	85.215598 
3120.000000	85.211772 
3119.000000	85.207863 
3118.000000	85.204251 
3117.000000	85.201597 
3116.000000	85.200108 
3115.000000	85.199295 
3114.000000	85.198284 
3113.000000	85.196279 
3112.000000	85.193016 
3111.000000	85.189033 
3110.000000	85.185462 
3109.000000	85.183238 
3108.000000	85.182464 
3107.000000	85.182433 
3106.000000	85.182181 
3105.000000	85.181080 
3104.000000	85.178994 
3103.000000	85.176116 
3102.000000	85.172801 
3101.000000	85.169553 
3100.000000	85.167089 
3099.000000	85.165994 
3098.000000	85.166065 
3097.000000	85.166239 
3096.000000	85.165416 
3095.000000	85.163095 
3094.000000	85.158935 
3093.000000	85.152384 
3092.000000	85.143808 
3091.000000	85.135698 
3090.000000	85.131041 
3089.000000	85.130107 
3088.000000	85.129920 
3087.000000	85.127640 
3086.000000	85.123593 
3085.000000	85.120045 
3084.000000	85.118179 
3083.000000	85.117285 
3082.000000	85.115871 
3081.000000	85.112632 
3080.000000	85.107455 
3079.000000	85.102694 
3078.000000	85.102268 
3077.000000	85.107839 
3076.000000	85.116156 
3075.000000	85.121415 
3074.000000	85.120149 
3073.000000	85.113413 
3072.000000	85.105393 
3071.000000	85.100572 
3070.000000	85.100894 
3069.000000	85.104239 
3068.000000	85.106198 
3067.000000	85.104322 
3066.000000	85.100205 
3065.000000	85.097208 
3064.000000	85.097230 
3063.000000	85.099808 
3062.000000	85.102231 
3061.000000	85.099917 
3060.000000	85.089539 
3059.000000	85.073874 
3058.000000	85.061430 
3057.000000	85.058407 
3056.000000	85.062051 
3055.000000	85.064433 
3054.000000	85.061485 
3053.000000	85.055268 
3052.000000	85.048567 
3051.000000	85.041210 
3050.000000	85.032391 
3049.000000	85.023285 
3048.000000	85.015417 
3047.000000	85.008223 
3046.000000	85.000087 
3045.000000	84.990697 
3044.000000	84.980805 
3043.000000	84.970264 
3042.000000	84.957759 
3041.000000	84.942679 
3040.000000	84.926221 
3039.000000	84.909986 
3038.000000	84.894006 
3037.000000	84.877008 
3036.000000	84.858802 
3035.000000	84.841444 
3034.000000	84.827089 
3033.000000	84.815023 
3032.000000	84.802114 
3031.000000	84.786316 
3030.000000	84.767934 
3029.000000	84.746805 
3028.000000	84.720589 
3027.000000	84.687238 
3026.000000	84.647816 
3025.000000	84.605652 
3024.000000	84.563493 
3023.000000	84.522649 
3022.000000	84.484031 
3021.000000	84.448110 
3020.000000	84.413741 
3019.000000	84.378314 
3018.000000	84.339709 
3017.000000	84.297864 
3016.000000	84.254446 
3015.000000	84.211280 
3014.000000	84.169100 
3013.000000	84.127597 
3012.000000	84.086457 
3011.000000	84.045896 
3010.000000	84.005760 
3009.000000	83.964664 
3008.000000	83.920976 
3007.000000	83.874654 
3006.000000	83.827357 
3005.000000	83.780903 
3004.000000	83.736309 
3003.000000	83.693888 
3002.000000	83.653193 
3001.000000	83.613323 
3000.000000	83.574687 
2999.000000	83.540023 
2998.000000	83.511937 
2997.000000	83.489593 
2996.000000	83.469181 
2995.000000	83.446543 
2994.000000	83.416897 
2993.000000	83.373552 
2992.000000	83.312826 
2991.000000	83.242847 
2990.000000	83.183555 
2989.000000	83.153951 
2988.000000	83.160154 
2987.000000	83.195909 
2986.000000	83.250027 
2985.000000	83.310491 
2984.000000	83.365063 
2983.000000	83.405118 
2982.000000	83.430707 
2981.000000	83.448988 
2980.000000	83.466337 
2979.000000	83.483101 
2978.000000	83.495331 
2977.000000	83.499071 
2976.000000	83.492979 
2975.000000	83.479471 
2974.000000	83.463983 
2973.000000	83.450936 
2972.000000	83.439515 
2971.000000	83.425103 
2970.000000	83.405521 
2969.000000	83.384291 
2968.000000	83.367199 
2967.000000	83.357168 
2966.000000	83.352974 
2965.000000	83.351179 
2964.000000	83.348222 
2963.000000	83.342223 
2962.000000	83.334511 
2961.000000	83.328973 
2960.000000	83.328815 
2959.000000	83.334021 
2958.000000	83.342500 
2957.000000	83.353362 
2956.000000	83.368294 
2955.000000	83.389522 
2954.000000	83.416741 
2953.000000	83.446457 
2952.000000	83.474494 
2951.000000	83.498658 
2950.000000	83.518267 
2949.000000	83.531731 
2948.000000	83.536548 
2947.000000	83.532597 
2946.000000	83.524471 
2945.000000	83.519090 
2944.000000	83.520746 
2943.000000	83.529283 
2942.000000	83.541972 
2941.000000	83.555100 
2940.000000	83.564497 
2939.000000	83.567516 
2938.000000	83.565061 
2937.000000	83.560413 
2936.000000	83.555742 
2935.000000	83.550540 
2934.000000	83.543561 
2933.000000	83.534810 
2932.000000	83.524788 
2931.000000	83.512819 
2930.000000	83.497410 
2929.000000	83.478127 
2928.000000	83.456622 
2927.000000	83.436010 
2926.000000	83.419576 
2925.000000	83.409481 
2924.000000	83.405728 
2923.000000	83.406061 
2922.000000	83.407464 
2921.000000	83.408502 
2920.000000	83.410224 
2919.000000	83.414339 
2918.000000	83.420289 
2917.000000	83.424504 
2916.000000	83.422784 
2915.000000	83.413316 
2914.000000	83.397886 
2913.000000	83.381423 
2912.000000	83.370398 
2911.000000	83.369240 
2910.000000	83.376082 
2909.000000	83.382877 
2908.000000	83.382549 
2907.000000	83.375922 
2906.000000	83.368866 
2905.000000	83.362697 
2904.000000	83.351946 
2903.000000	83.334603 
2902.000000	83.321437 
2901.000000	83.329131 
2900.000000	83.364052 
2899.000000	83.414691 
2898.000000	83.460709 
2897.000000	83.489306 
2896.000000	83.502447 
2895.000000	83.510395 
2894.000000	83.521222 
2893.000000	83.535596 
2892.000000	83.549441 
2891.000000	83.559613 
2890.000000	83.566698 
2889.000000	83.573199 
2888.000000	83.580472 
2887.000000	83.588060 
2886.000000	83.595569 
2885.000000	83.604473 
2884.000000	83.617992 
2883.000000	83.639113 
2882.000000	83.667980 
2881.000000	83.700677 
2880.000000	83.731294 
2879.000000	83.756462 
2878.000000	83.777652 
2877.000000	83.798347 
2876.000000	83.818998 
2875.000000	83.835779 
2874.000000	83.844729 
2873.000000	83.846568 
2872.000000	83.846995 
2871.000000	83.852279 
2870.000000	83.864715 
2869.000000	83.881858 
2868.000000	83.899583 
2867.000000	83.915841 
2866.000000	83.931944 
2865.000000	83.950518 
2864.000000	83.972409 
2863.000000	83.995646 
2862.000000	84.017323 
2861.000000	84.036228 
2860.000000	84.053395 
2859.000000	84.070104 
2858.000000	84.085923 
2857.000000	84.099394 
2856.000000	84.110408 
2855.000000	84.121031 
2854.000000	84.134091 
2853.000000	84.151867 
2852.000000	84.176128 
2851.000000	84.207110 
2850.000000	84.241094 
2849.000000	84.271134 
2848.000000	84.292957 
2847.000000	84.309495 
2846.000000	84.327416 
2845.000000	84.349474 
2844.000000	84.372598 
2843.000000	84.393301 
2842.000000	84.411608 
2841.000000	84.428665 
2840.000000	84.443657 
2839.000000	84.455451 
2838.000000	84.465312 
2837.000000	84.475481 
2836.000000	84.486148 
2835.000000	84.496007 
2834.000000	84.505083 
2833.000000	84.514745 
2832.000000	84.525004 
2831.000000	84.533835 
2830.000000	84.539668 
2829.000000	84.542872 
2828.000000	84.544338 
2827.000000	84.544068 
2826.000000	84.542203 
2825.000000	84.540658 
2824.000000	84.542242 
2823.000000	84.547673 
2822.000000	84.554318 
2821.000000	84.558714 
2820.000000	84.560121 
2819.000000	84.560750 
2818.000000	84.562667 
2817.000000	84.565776 
2816.000000	84.569226 
2815.000000	84.573102 
2814.000000	84.577302 
2813.000000	84.580148 
2812.000000	84.580371 
2811.000000	84.579828 
2810.000000	84.581811 
2809.000000	84.586453 
2808.000000	84.590095 
2807.000000	84.589740 
2806.000000	84.586029 
2805.000000	84.581235 
2804.000000	84.576423 
2803.000000	84.571934 
2802.000000	84.568930 
2801.000000	84.568627 
2800.000000	84.570793 
2799.000000	84.574296 
2798.000000	84.578498 
2797.000000	84.583074 
2796.000000	84.587044 
2795.000000	84.588974 
2794.000000	84.588049 
2793.000000	84.584636 
2792.000000	84.580287 
2791.000000	84.577355 
2790.000000	84.577686 
2789.000000	84.581244 
2788.000000	84.586321 
2787.000000	84.591211 
2786.000000	84.595197 
2785.000000	84.597994 
2784.000000	84.599172 
2783.000000	84.598610 
2782.000000	84.597007 
2781.000000	84.595515 
2780.000000	84.594921 
2779.000000	84.595275 
2778.000000	84.596068 
2777.000000	84.596634 
2776.000000	84.596613 
2775.000000	84.596187 
2774.000000	84.595754 
2773.000000	84.595395 
2772.000000	84.594871 
2771.000000	84.594086 
2770.000000	84.593303 
2769.000000	84.592916 
2768.000000	84.593215 
2767.000000	84.594349 
2766.000000	84.596197 
2765.000000	84.598179 
2764.000000	84.599470 
2763.000000	84.599659 
2762.000000	84.599068 
2761.000000	84.598415 
2760.000000	84.598130 
2759.000000	84.598104 
2758.000000	84.598003 
2757.000000	84.597670 
2756.000000	84.597349 
2755.000000	84.597550 
2754.000000	84.598469 
2753.000000	84.599518 
2752.000000	84.599784 
2751.000000	84.599136 
2750.000000	84.598496 
2749.000000	84.598766 
2748.000000	84.599865 
2747.000000	84.601138 
2746.000000	84.602215 
2745.000000	84.603011 
2744.000000	84.603220 
2743.000000	84.602452 
2742.000000	84.600830 
2741.000000	84.598973 
2740.000000	84.597418 
2739.000000	84.596496 
2738.000000	84.596575 
2737.000000	84.597813 
2736.000000	84.599784 
2735.000000	84.601878 
2734.000000	84.603863 
2733.000000	84.605627 
2732.000000	84.606826 
2731.000000	84.607411 
2730.000000	84.608056 
2729.000000	84.609356 
2728.000000	84.610923 
2727.000000	84.612044 
2726.000000	84.612829 
2725.000000	84.613855 
2724.000000	84.614952 
2723.000000	84.615385 
2722.000000	84.614981 
2721.000000	84.614079 
2720.000000	84.612628 
2719.000000	84.610424 
2718.000000	84.608171 
2717.000000	84.607136 
2716.000000	84.607628 
2715.000000	84.608768 
2714.000000	84.609908 
2713.000000	84.611248 
2712.000000	84.612790 
2711.000000	84.613692 
2710.000000	84.613288 
2709.000000	84.612110 
2708.000000	84.611445 
2707.000000	84.612284 
2706.000000	84.614807 
2705.000000	84.618207 
2704.000000	84.620753 
2703.000000	84.620738 
2702.000000	84.617830 
2701.000000	84.613392 
2700.000000	84.609256 
2699.000000	84.606286 
2698.000000	84.604289 
2697.000000	84.602845 
2696.000000	84.601881 
2695.000000	84.601629 
2694.000000	84.602117 
2693.000000	84.602577 
2692.000000	84.601618 
2691.000000	84.598489 
2690.000000	84.594215 
2689.000000	84.590932 
2688.000000	84.589729 
2687.000000	84.589733 
2686.000000	84.589530 
2685.000000	84.588992 
2684.000000	84.589040 
2683.000000	84.590018 
2682.000000	84.591209 
2681.000000	84.591973 
2680.000000	84.592484 
2679.000000	84.592953 
2678.000000	84.592812 
2677.000000	84.591384 
2676.000000	84.589063 
2675.000000	84.587074 
2674.000000	84.586079 
2673.000000	84.585793 
2672.000000	84.586018 
2671.000000	84.587131 
2670.000000	84.589029 
2669.000000	84.590369 
2668.000000	84.589778 
2667.000000	84.587441 
2666.000000	84.584866 
2665.000000	84.583297 
2664.000000	84.583072 
2663.000000	84.584252 
2662.000000	84.586806 
2661.000000	84.589915 
2660.000000	84.592168 
2659.000000	84.592988 
2658.000000	84.593045 
2657.000000	84.593022 
2656.000000	84.592616 
2655.000000	84.591366 
2654.000000	84.589748 
2653.000000	84.588645 
2652.000000	84.588156 
2651.000000	84.587676 
2650.000000	84.586855 
2649.000000	84.585857 
2648.000000	84.584923 
2647.000000	84.584182 
2646.000000	84.583781 
2645.000000	84.583751 
2644.000000	84.583792 
2643.000000	84.583513 
2642.000000	84.582860 
2641.000000	84.582154 
2640.000000	84.581758 
2639.000000	84.581819 
2638.000000	84.582181 
2637.000000	84.582360 
2636.000000	84.581814 
2635.000000	84.580433 
2634.000000	84.578751 
2633.000000	84.577470 
2632.000000	84.576790 
2631.000000	84.576460 
2630.000000	84.576268 
2629.000000	84.576180 
2628.000000	84.576047 
2627.000000	84.575620 
2626.000000	84.575006 
2625.000000	84.574726 
2624.000000	84.575064 
2623.000000	84.575580 
2622.000000	84.575503 
2621.000000	84.574568 
2620.000000	84.573343 
2619.000000	84.572762 
2618.000000	84.573238 
2617.000000	84.574217 
2616.000000	84.574597 
2615.000000	84.573798 
2614.000000	84.572193 
2613.000000	84.570612 
2612.000000	84.569355 
2611.000000	84.568106 
2610.000000	84.566761 
2609.000000	84.565818 
2608.000000	84.565639 
2607.000000	84.565690 
2606.000000	84.564955 
2605.000000	84.563129 
2604.000000	84.560980 
2603.000000	84.559428 
2602.000000	84.558584 
2601.000000	84.557954 
2600.000000	84.557374 
2599.000000	84.557260 
2598.000000	84.557880 
2597.000000	84.558826 
2596.000000	84.559484 
2595.000000	84.559807 
2594.000000	84.560201 
2593.000000	84.560740 
2592.000000	84.560935 
2591.000000	84.560449 
2590.000000	84.559653 
2589.000000	84.559236 
2588.000000	84.559436 
2587.000000	84.559879 
2586.000000	84.560001 
2585.000000	84.559410 
2584.000000	84.558027 
2583.000000	84.556152 
2582.000000	84.554341 
2581.000000	84.553000 
2580.000000	84.552120 
2579.000000	84.551609 
2578.000000	84.551612 
2577.000000	84.552196 
2576.000000	84.552926 
2575.000000	84.553145 
2574.000000	84.552749 
2573.000000	84.552347 
2572.000000	84.552567 
2571.000000	84.553472 
2570.000000	84.554642 
2569.000000	84.555539 
2568.000000	84.555800 
2567.000000	84.555354 
2566.000000	84.554475 
2565.000000	84.553729 
2564.000000	84.553600 
2563.000000	84.554114 
2562.000000	84.554830 
2561.000000	84.555194 
2560.000000	84.554999 
2559.000000	84.554417 
2558.000000	84.553741 
2557.000000	84.553157 
2556.000000	84.552703 
2555.000000	84.552343 
2554.000000	84.552009 
2553.000000	84.551635 
2552.000000	84.551232 
2551.000000	84.550904 
2550.000000	84.550728 
2549.000000	84.550648 
2548.000000	84.550515 
2547.000000	84.550260 
2546.000000	84.549970 
2545.000000	84.549764 
2544.000000	84.549636 
2543.000000	84.549444 
2542.000000	84.549072 
2541.000000	84.548560 
2540.000000	84.548070 
2539.000000	84.547713 
2538.000000	84.547454 
2537.000000	84.547160 
2536.000000	84.546723 
2535.000000	84.546119 
2534.000000	84.545382 
2533.000000	84.544573 
2532.000000	84.543796 
2531.000000	84.543173 
2530.000000	84.542743 
2529.000000	84.542413 
2528.000000	84.542037 
2527.000000	84.541570 
2526.000000	84.541055 
2525.000000	84.540510 
2524.000000	84.539925 
2523.000000	84.539345 
2522.000000	84.538871 
2521.000000	84.538530 
2520.000000	84.538173 
2519.000000	84.537600 
2518.000000	84.536755 
2517.000000	84.535749 
2516.000000	84.534780 
2515.000000	84.534002 
2514.000000	84.533442 
2513.000000	84.533005 
2512.000000	84.532544 
2511.000000	84.532003 
2510.000000	84.531410 
2509.000000	84.530772 
2508.000000	84.530060 
2507.000000	84.529293 
2506.000000	84.528529 
2505.000000	84.527738 
2504.000000	84.526858 
2503.000000	84.526012 
2502.000000	84.525477 
2501.000000	84.525290 
2500.000000	84.525057 
2499.000000	84.524395 
2498.000000	84.523385 
2497.000000	84.522375 
2496.000000	84.521428 
2495.000000	84.520301 
2494.000000	84.518976 
2493.000000	84.517780 
2492.000000	84.516881 
2491.000000	84.516108 
2490.000000	84.515396 
2489.000000	84.514978 
2488.000000	84.514974 
2487.000000	84.515128 
2486.000000	84.515099 
2485.000000	84.514806 
2484.000000	84.514313 
2483.000000	84.513602 
2482.000000	84.512666 
2481.000000	84.511722 
2480.000000	84.511131 
2479.000000	84.511001 
2478.000000	84.510969 
2477.000000	84.510476 
2476.000000	84.509328 
2475.000000	84.507952 
2474.000000	84.506995 
2473.000000	84.506683 
2472.000000	84.506767 
2471.000000	84.507048 
2470.000000	84.507669 
2469.000000	84.508634 
2468.000000	84.509327 
2467.000000	84.508956 
2466.000000	84.507390 
2465.000000	84.505339 
2464.000000	84.503762 
2463.000000	84.503060 
2462.000000	84.502907 
2461.000000	84.502612 
2460.000000	84.501695 
2459.000000	84.500270 
2458.000000	84.498855 
2457.000000	84.497772 
2456.000000	84.496903 
2455.000000	84.496093 
2454.000000	84.495547 
2453.000000	84.495492 
2452.000000	84.495598 
2451.000000	84.495111 
2450.000000	84.493715 
2449.000000	84.492059 
2448.000000	84.491254 
2447.000000	84.491845 
2446.000000	84.493387 
2445.000000	84.494846 
2444.000000	84.495592 
2443.000000	84.495805 
2442.000000	84.495886 
2441.000000	84.495739 
2440.000000	84.494948 
2439.000000	84.493541 
2438.000000	84.492070 
2437.000000	84.490892 
2436.000000	84.489841 
2435.000000	84.488747 
2434.000000	84.487838 
2433.000000	84.487393 
2432.000000	84.487380 
2431.000000	84.487669 
2430.000000	84.488254 
2429.000000	84.488949 
2428.000000	84.489183 
2427.000000	84.488521 
2426.000000	84.487248 
2425.000000	84.486121 
2424.000000	84.485527 
2423.000000	84.485146 
2422.000000	84.484431 
2421.000000	84.483268 
2420.000000	84.482182 
2419.000000	84.481918 
2418.000000	84.482788 
2417.000000	84.484363 
2416.000000	84.485847 
2415.000000	84.486779 
2414.000000	84.487235 
2413.000000	84.487319 
2412.000000	84.486998 
2411.000000	84.486502 
2410.000000	84.486308 
2409.000000	84.486575 
2408.000000	84.486991 
2407.000000	84.487214 
2406.000000	84.487227 
2405.000000	84.487219 
2404.000000	84.487241 
2403.000000	84.487096 
2402.000000	84.486700 
2401.000000	84.486344 
2400.000000	84.486403 
2399.000000	84.486895 
2398.000000	84.487454 
2397.000000	84.487688 
2396.000000	84.487486 
2395.000000	84.487011 
2394.000000	84.486547 
2393.000000	84.486363 
2392.000000	84.486585 
2391.000000	84.487165 
2390.000000	84.487902 
2389.000000	84.488590 
2388.000000	84.489226 
2387.000000	84.489939 
2386.000000	84.490734 
2385.000000	84.491476 
2384.000000	84.492130 
2383.000000	84.492837 
2382.000000	84.493689 
2381.000000	84.494526 
2380.000000	84.495142 
2379.000000	84.495620 
2378.000000	84.496235 
2377.000000	84.497005 
2376.000000	84.497631 
2375.000000	84.497997 
2374.000000	84.498498 
2373.000000	84.499608 
2372.000000	84.501271 
2371.000000	84.502888 
2370.000000	84.503935 
2369.000000	84.504317 
2368.000000	84.504200 
2367.000000	84.503812 
2366.000000	84.503474 
2365.000000	84.503672 
2364.000000	84.504807 
2363.000000	84.506844 
2362.000000	84.509293 
2361.000000	84.511518 
2360.000000	84.513293 
2359.000000	84.514786 
2358.000000	84.516136 
2357.000000	84.517313 
2356.000000	84.518367 
2355.000000	84.519481 
2354.000000	84.520573 
2353.000000	84.521561 
2352.000000	84.522652 
2351.000000	84.524125 
2350.000000	84.525991 
2349.000000	84.527863 
2348.000000	84.529266 
2347.000000	84.529949 
2346.000000	84.530188 
2345.000000	84.530677 
2344.000000	84.531773 
2343.000000	84.533404 
2342.000000	84.535159 
2341.000000	84.536590 
2340.000000	84.537358 
2339.000000	84.537587 
2338.000000	84.537773 
2337.000000	84.538281 
2336.000000	84.539066 
2335.000000	84.539781 
2334.000000	84.540156 
2333.000000	84.540365 
2332.000000	84.540876 
2331.000000	84.541402 
2330.000000	84.541098 
2329.000000	84.539416 
2328.000000	84.537271 
2327.000000	84.535820 
2326.000000	84.535789 
2325.000000	84.537202 
2324.000000	84.539588 
2323.000000	84.542089 
2322.000000	84.543763 
2321.000000	84.544482 
2320.000000	84.544670 
2319.000000	84.544509 
2318.000000	84.543739 
2317.000000	84.542134 
2316.000000	84.540194 
2315.000000	84.538566 
2314.000000	84.538156 
2313.000000	84.539214 
2312.000000	84.541076 
2311.000000	84.541589 
2310.000000	84.539152 
2309.000000	84.533967 
2308.000000	84.528009 
2307.000000	84.522750 
2306.000000	84.518432 
2305.000000	84.514986 
2304.000000	84.512948 
2303.000000	84.512621 
2302.000000	84.513547 
2301.000000	84.514543 
2300.000000	84.514683 
2299.000000	84.513574 
2298.000000	84.511628 
2297.000000	84.509367 
2296.000000	84.507119 
2295.000000	84.504538 
2294.000000	84.501416 
2293.000000	84.498012 
2292.000000	84.494894 
2291.000000	84.492162 
2290.000000	84.489646 
2289.000000	84.487555 
2288.000000	84.486369 
2287.000000	84.486017 
2286.000000	84.485649 
2285.000000	84.484578 
2284.000000	84.482831 
2283.000000	84.480809 
2282.000000	84.478833 
2281.000000	84.477318 
2280.000000	84.476679 
2279.000000	84.476788 
2278.000000	84.476835 
2277.000000	84.476310 
2276.000000	84.475703 
2275.000000	84.475748 
2274.000000	84.476227 
2273.000000	84.475998 
2272.000000	84.474315 
2271.000000	84.471644 
2270.000000	84.469241 
2269.000000	84.468021 
2268.000000	84.468050 
2267.000000	84.468783 
2266.000000	84.469436 
2265.000000	84.469412 
2264.000000	84.468598 
2263.000000	84.467364 
2262.000000	84.466309 
2261.000000	84.465856 
2260.000000	84.466048 
2259.000000	84.466619 
2258.000000	84.467228 
2257.000000	84.467709 
2256.000000	84.468105 
2255.000000	84.468469 
2254.000000	84.468722 
2253.000000	84.468782 
2252.000000	84.468764 
2251.000000	84.468860 
2250.000000	84.469067 
2249.000000	84.469187 
2248.000000	84.469133 
2247.000000	84.469009 
2246.000000	84.468939 
2245.000000	84.468963 
2244.000000	84.469099 
2243.000000	84.469389 
2242.000000	84.469802 
2241.000000	84.470212 
2240.000000	84.470503 
2239.000000	84.470682 
2238.000000	84.470822 
2237.000000	84.471002 
2236.000000	84.471229 
2235.000000	84.471457 
2234.000000	84.471656 
2233.000000	84.471844 
2232.000000	84.472054 
2231.000000	84.472291 
2230.000000	84.472534 
2229.000000	84.472755 
2228.000000	84.472926 
2227.000000	84.473030 
2226.000000	84.473094 
2225.000000	84.473201 
2224.000000	84.473411 
2223.000000	84.473730 
2222.000000	84.474097 
2221.000000	84.474450 
2220.000000	84.474774 
2219.000000	84.475075 
2218.000000	84.475345 
2217.000000	84.475577 
2216.000000	84.475775 
2215.000000	84.475953 
2214.000000	84.476116 
2213.000000	84.476268 
2212.000000	84.476425 
2211.000000	84.476600 
2210.000000	84.476776 
2209.000000	84.476916 
2208.000000	84.477032 
2207.000000	84.477201 
2206.000000	84.477483 
2205.000000	84.477782 
2204.000000	84.477882 
2203.000000	84.477629 
2202.000000	84.477114 
2201.000000	84.476669 
2200.000000	84.476617 
2199.000000	84.477045 
2198.000000	84.477770 
2197.000000	84.478511 
2196.000000	84.479083 
2195.000000	84.479474 
2194.000000	84.479769 
2193.000000	84.480037 
2192.000000	84.480284 
2191.000000	84.480463 
2190.000000	84.480517 
2189.000000	84.480481 
2188.000000	84.480567 
2187.000000	84.481057 
2186.000000	84.482029 
2185.000000	84.483189 
2184.000000	84.484033 
2183.000000	84.484331 
2182.000000	84.484258 
2181.000000	84.484201 
2180.000000	84.484347 
2179.000000	84.484582 
2178.000000	84.484712 
2177.000000	84.484662 
2176.000000	84.484523 
2175.000000	84.484471 
2174.000000	84.484616 
2173.000000	84.484874 
2172.000000	84.485039 
2171.000000	84.485050 
2170.000000	84.485150 
2169.000000	84.485641 
2168.000000	84.486543 
2167.000000	84.487509 
2166.000000	84.488148 
2165.000000	84.488374 
2164.000000	84.488387 
2163.000000	84.488389 
2162.000000	84.488352 
2161.000000	84.488128 
2160.000000	84.487750 
2159.000000	84.487498 
2158.000000	84.487588 
2157.000000	84.487908 
2156.000000	84.488103 
2155.000000	84.487957 
2154.000000	84.487591 
2153.000000	84.487276 
2152.000000	84.487110 
2151.000000	84.486982 
2150.000000	84.486789 
2149.000000	84.486562 
2148.000000	84.486370 
2147.000000	84.486189 
2146.000000	84.485895 
2145.000000	84.485390 
2144.000000	84.484760 
2143.000000	84.484298 
2142.000000	84.484214 
2141.000000	84.484364 
2140.000000	84.484344 
2139.000000	84.483940 
2138.000000	84.483376 
2137.000000	84.483071 
2136.000000	84.483260 
2135.000000	84.483872 
2134.000000	84.484589 
2133.000000	84.484995 
2132.000000	84.484837 
2131.000000	84.484199 
2130.000000	84.483391 
2129.000000	84.482614 
2128.000000	84.481875 
2127.000000	84.481206 
2126.000000	84.480692 
2125.000000	84.480232 
2124.000000	84.479549 
2123.000000	84.478581 
2122.000000	84.477689 
2121.000000	84.477274 
2120.000000	84.477341 
2119.000000	84.477545 
2118.000000	84.477540 
2117.000000	84.477286 
2116.000000	84.476934 
2115.000000	84.476600 
2114.000000	84.476290 
2113.000000	84.475984 
2112.000000	84.475715 
2111.000000	84.475538 
2110.000000	84.475454 
2109.000000	84.475378 
2108.000000	84.475218 
2107.000000	84.474964 
2106.000000	84.474676 
2105.000000	84.474402 
2104.000000	84.474147 
2103.000000	84.473904 
2102.000000	84.473691 
2101.000000	84.473530 
2100.000000	84.473409 
2099.000000	84.473288 
2098.000000	84.473123 
2097.000000	84.472909 
2096.000000	84.472671 
2095.000000	84.472445 
2094.000000	84.472241 
2093.000000	84.472043 
2092.000000	84.471845 
2091.000000	84.471662 
2090.000000	84.471512 
2089.000000	84.471405 
2088.000000	84.471337 
2087.000000	84.471299 
2086.000000	84.471305 
2085.000000	84.471377 
2084.000000	84.471457 
2083.000000	84.471434 
2082.000000	84.471270 
2081.000000	84.471053 
2080.000000	84.470877 
2079.000000	84.470765 
2078.000000	84.470737 
2077.000000	84.470800 
2076.000000	84.470838 
2075.000000	84.470713 
2074.000000	84.470503 
2073.000000	84.470412 
2072.000000	84.470361 
2071.000000	84.469962 
2070.000000	84.469031 
2069.000000	84.467957 
2068.000000	84.467382 
2067.000000	84.467578 
2066.000000	84.468331 
2065.000000	84.469180 
2064.000000	84.469724 
2063.000000	84.469786 
2062.000000	84.469437 
2061.000000	84.468893 
2060.000000	84.468285 
2059.000000	84.467552 
2058.000000	84.466632 
2057.000000	84.465643 
2056.000000	84.464818 
2055.000000	84.464336 
2054.000000	84.464257 
2053.000000	84.464534 
2052.000000	84.465070 
2051.000000	84.465841 
2050.000000	84.466947 
2049.000000	84.468383 
2048.000000	84.469690 
2047.000000	84.470001 
2046.000000	84.468670 
2045.000000	84.465790 
2044.000000	84.462172 
2043.000000	84.458877 
2042.000000	84.456731 
2041.000000	84.456105 
2040.000000	84.456722 
2039.000000	84.457687 
2038.000000	84.458153 
2037.000000	84.458061 
2036.000000	84.458061 
2035.000000	84.458615 
2034.000000	84.459373 
2033.000000	84.459615 
2032.000000	84.459169 
2031.000000	84.458500 
2030.000000	84.457886 
2029.000000	84.456958 
2028.000000	84.455362 
2027.000000	84.453511 
2026.000000	84.452199 
2025.000000	84.451663 
2024.000000	84.451383 
2023.000000	84.450815 
2022.000000	84.449966 
2021.000000	84.449179 
2020.000000	84.448722 
2019.000000	84.448631 
2018.000000	84.448721 
2017.000000	84.448674 
2016.000000	84.448404 
2015.000000	84.448349 
2014.000000	84.449077 
2013.000000	84.450514 
2012.000000	84.451779 
2011.000000	84.452022 
2010.000000	84.451182 
2009.000000	84.449818 
2008.000000	84.448439 
2007.000000	84.447179 
2006.000000	84.445959 
2005.000000	84.444750 
2004.000000	84.443681 
2003.000000	84.443056 
2002.000000	84.443145 
2001.000000	84.443854 
2000.000000	84.444671 
1999.000000	84.444990 
1998.000000	84.444521 
1997.000000	84.443327 
1996.000000	84.441754 
1995.000000	84.440382 
1994.000000	84.439687 
1993.000000	84.439670 
1992.000000	84.439910 
1991.000000	84.440114 
1990.000000	84.440439 
1989.000000	84.441081 
1988.000000	84.441845 
1987.000000	84.442309 
1986.000000	84.442231 
1985.000000	84.441677 
1984.000000	84.440970 
1983.000000	84.440599 
1982.000000	84.440931 
1981.000000	84.441782 
1980.000000	84.442439 
1979.000000	84.442368 
1978.000000	84.441787 
1977.000000	84.441357 
1976.000000	84.441418 
1975.000000	84.441774 
1974.000000	84.442067 
1973.000000	84.442066 
1972.000000	84.441673 
1971.000000	84.441000 
1970.000000	84.440400 
1969.000000	84.440136 
1968.000000	84.440023 
1967.000000	84.439702 
1966.000000	84.439309 
1965.000000	84.439470 
1964.000000	84.440490 
1963.000000	84.441910 
1962.000000	84.443062 
1961.000000	84.443809 
1960.000000	84.444411 
1959.000000	84.444910 
1958.000000	84.445129 
1957.000000	84.445166 
1956.000000	84.445358 
1955.000000	84.445640 
1954.000000	84.445433 
1953.000000	84.444352 
1952.000000	84.442625 
1951.000000	84.440808 
1950.000000	84.439165 
1949.000000	84.437641 
1948.000000	84.436332 
1947.000000	84.435637 
1946.000000	84.435924 
1945.000000	84.437125 
1944.000000	84.438681 
1943.000000	84.439855 
1942.000000	84.440168 
1941.000000	84.439691 
1940.000000	84.439044 
1939.000000	84.438934 
1938.000000	84.439559 
1937.000000	84.440428 
1936.000000	84.440750 
1935.000000	84.440101 
1934.000000	84.438821 
1933.000000	84.437814 
1932.000000	84.437711 
1931.000000	84.438285 
1930.000000	84.438638 
1929.000000	84.438220 
1928.000000	84.437484 
1927.000000	84.437341 
1926.000000	84.438327 
1925.000000	84.440106 
1924.000000	84.442048 
1923.000000	84.443942 
1922.000000	84.445887 
1921.000000	84.447810 
1920.000000	84.449207 
1919.000000	84.449385 
1918.000000	84.447997 
1917.000000	84.445524 
1916.000000	84.443244 
1915.000000	84.442295 
1914.000000	84.442767 
1913.000000	84.443685 
1912.000000	84.443960 
1911.000000	84.443667 
1910.000000	84.443861 
1909.000000	84.445095 
1908.000000	84.446617 
1907.000000	84.447347 
1906.000000	84.447247 
1905.000000	84.446945 
1904.000000	84.446915 
1903.000000	84.447316 
1902.000000	84.448179 
1901.000000	84.449375 
1900.000000	84.450442 
1899.000000	84.450937 
1898.000000	84.451013 
1897.000000	84.451160 
1896.000000	84.451553 
1895.000000	84.451970 
1894.000000	84.452319 
1893.000000	84.452902 
1892.000000	84.453986 
1891.000000	84.455503 
1890.000000	84.457238 
1889.000000	84.458996 
1888.000000	84.460568 
1887.000000	84.461789 
1886.000000	84.462676 
1885.000000	84.463449 
1884.000000	84.464370 
1883.000000	84.465525 
1882.000000	84.466770 
1881.000000	84.467904 
1880.000000	84.468866 
1879.000000	84.469738 
1878.000000	84.470644 
1877.000000	84.471631 
1876.000000	84.472678 
1875.000000	84.473766 
1874.000000	84.474878 
1873.000000	84.475984 
1872.000000	84.477070 
1871.000000	84.478163 
1870.000000	84.479314 
1869.000000	84.480520 
1868.000000	84.481741 
1867.000000	84.482945 
1866.000000	84.484123 
1865.000000	84.485280 
1864.000000	84.486422 
1863.000000	84.487555 
1862.000000	84.488683 
1861.000000	84.489807 
1860.000000	84.490929 
1859.000000	84.492048 
1858.000000	84.493167 
1857.000000	84.494282 
1856.000000	84.495387 
1855.000000	84.496477 
1854.000000	84.497552 
1853.000000	84.498614 
1852.000000	84.499665 
1851.000000	84.500707 
1850.000000	84.501737 
1849.000000	84.502760 
1848.000000	84.503775 
1847.000000	84.504793 
1846.000000	84.505823 
1845.000000	84.506857 
1844.000000	84.507904 
1843.000000	84.509017 
1842.000000	84.510203 
1841.000000	84.511361 
1840.000000	84.512411 
1839.000000	84.513393 
1838.000000	84.514425 
1837.000000	84.515528 
1836.000000	84.516622 
1835.000000	84.517711 
1834.000000	84.518899 
1833.000000	84.520357 
1832.000000	84.522318 
1831.000000	84.524640 
1830.000000	84.526376 
1829.000000	84.526446 
1828.000000	84.525154 
1827.000000	84.524068 
1826.000000	84.524151 
1825.000000	84.524961 
1824.000000	84.525675 
1823.000000	84.526574 
1822.000000	84.528395 
1821.000000	84.530870 
1820.000000	84.533181 
1819.000000	84.535380 
1818.000000	84.538107 
1817.000000	84.540578 
1816.000000	84.541111 
1815.000000	84.539427 
1814.000000	84.536727 
1813.000000	84.534286 
1812.000000	84.533107 
1811.000000	84.534635 
1810.000000	84.539379 
1809.000000	84.545550 
1808.000000	84.550813 
1807.000000	84.554482 
1806.000000	84.557446 
1805.000000	84.560279 
1804.000000	84.562639 
1803.000000	84.564466 
1802.000000	84.566620 
1801.000000	84.570162 
1800.000000	84.573183 
1799.000000	84.572900 
1798.000000	84.570152 
1797.000000	84.568379 
1796.000000	84.569558 
1795.000000	84.572934 
1794.000000	84.576901 
1793.000000	84.580673 
1792.000000	84.584593 
1791.000000	84.589078 
1790.000000	84.592611 
1789.000000	84.594070 
1788.000000	84.595516 
1787.000000	84.600203 
1786.000000	84.608914 
1785.000000	84.618474 
1784.000000	84.625027 
1783.000000	84.628402 
1782.000000	84.631131 
1781.000000	84.635231 
1780.000000	84.638600 
1779.000000	84.638979 
1778.000000	84.638310 
1777.000000	84.639850 
1776.000000	84.644344 
1775.000000	84.651285 
1774.000000	84.662077 
1773.000000	84.676183 
1772.000000	84.686505 
1771.000000	84.689346 
1770.000000	84.692012 
1769.000000	84.702000 
1768.000000	84.719435 
1767.000000	84.738315 
1766.000000	84.753686 
1765.000000	84.767079 
1764.000000	84.782291 
1763.000000	84.800967 
1762.000000	84.820999 
1761.000000	84.838637 
1760.000000	84.852174 
1759.000000	84.863916 
1758.000000	84.876305 
1757.000000	84.888912 
1756.000000	84.898637 
1755.000000	84.904834 
1754.000000	84.911768 
1753.000000	84.922933 
1752.000000	84.937233 
1751.000000	84.951809 
1750.000000	84.966580 
1749.000000	84.981461 
1748.000000	84.994256 
1747.000000	85.002638 
1746.000000	85.008225 
1745.000000	85.015639 
1744.000000	85.026333 
1743.000000	85.037907 
1742.000000	85.047118 
1741.000000	85.052422 
1740.000000	85.054073 
1739.000000	85.054374 
1738.000000	85.054833 
1737.000000	85.052393 
1736.000000	85.040743 
1735.000000	85.014856 
1734.000000	84.981461 
1733.000000	84.960630 
1732.000000	84.960185 
1731.000000	84.970292 
1730.000000	84.980718 
1729.000000	84.986125 
1728.000000	84.984808 
1727.000000	84.976894 
1726.000000	84.964012 
1725.000000	84.949102 
1724.000000	84.934821 
1723.000000	84.923944 
1722.000000	84.916548 
1721.000000	84.908916 
1720.000000	84.896656 
1719.000000	84.878397 
1718.000000	84.857655 
1717.000000	84.841079 
1716.000000	84.832784 
1715.000000	84.830177 
1714.000000	84.828097 
1713.000000	84.822956 
1712.000000	84.813592 
1711.000000	84.800345 
1710.000000	84.783713 
1709.000000	84.765305 
1708.000000	84.748236 
1707.000000	84.734896 
1706.000000	84.726060 
1705.000000	84.719520 
1704.000000	84.711849 
1703.000000	84.700619 
1702.000000	84.686993 
1701.000000	84.675072 
1700.000000	84.665962 
1699.000000	84.659884 
1698.000000	84.658034 
1697.000000	84.660532 
1696.000000	84.665086 
1695.000000	84.667385 
1694.000000	84.666941 
1693.000000	84.665647 
1692.000000	84.663841 
1691.000000	84.662580 
1690.000000	84.663533 
1689.000000	84.666160 
1688.000000	84.667117 
1687.000000	84.664045 
1686.000000	84.661444 
1685.000000	84.663757 
1684.000000	84.665423 
1683.000000	84.660708 
1682.000000	84.654120 
1681.000000	84.650287 
1680.000000	84.650341 
1679.000000	84.654043 
1678.000000	84.662023 
1677.000000	84.675489 
1676.000000	84.690728 
1675.000000	84.699267 
1674.000000	84.699050 
1673.000000	84.697192 
1672.000000	84.697066 
1671.000000	84.697322 
1670.000000	84.696957 
1669.000000	84.698130 
1668.000000	84.702144 
1667.000000	84.705511 
1666.000000	84.704846 
1665.000000	84.700964 
1664.000000	84.697287 
1663.000000	84.696375 
1662.000000	84.697615 
1661.000000	84.700198 
1660.000000	84.703318 
1659.000000	84.706147 
1658.000000	84.708951 
1657.000000	84.711760 
1656.000000	84.712800 
1655.000000	84.710880 
1654.000000	84.708084 
1653.000000	84.705069 
1652.000000	84.704141 
1651.000000	84.707684 
1650.000000	84.711702 
1649.000000	84.713664 
1648.000000	84.714614 
1647.000000	84.715320 
1646.000000	84.715401 
1645.000000	84.715241 
1644.000000	84.715463 
1643.000000	84.715566 
1642.000000	84.714672 
1641.000000	84.713112 
1640.000000	84.711853 
1639.000000	84.711199 
1638.000000	84.710804 
1637.000000	84.710319 
1636.000000	84.709474 
1635.000000	84.707945 
1634.000000	84.706843 
1633.000000	84.706191 
1632.000000	84.705099 
1631.000000	84.703758 
1630.000000	84.703089 
1629.000000	84.703547 
1628.000000	84.704390 
1627.000000	84.704163 
1626.000000	84.701901 
1625.000000	84.698047 
1624.000000	84.694056 
1623.000000	84.691498 
1622.000000	84.690870 
1621.000000	84.691492 
1620.000000	84.691926 
1619.000000	84.691310 
1618.000000	84.690096 
1617.000000	84.688556 
1616.000000	84.686387 
1615.000000	84.683969 
1614.000000	84.681580 
1613.000000	84.679221 
1612.000000	84.677676 
1611.000000	84.677401 
1610.000000	84.677550 
1609.000000	84.677422 
1608.000000	84.676994 
1607.000000	84.675924 
1606.000000	84.673069 
1605.000000	84.668349 
1604.000000	84.662725 
1603.000000	84.657577 
1602.000000	84.654204 
1601.000000	84.652612 
1600.000000	84.651613 
1599.000000	84.650527 
1598.000000	84.650156 
1597.000000	84.651419 
1596.000000	84.653691 
1595.000000	84.655535 
1594.000000	84.656382 
1593.000000	84.656600 
1592.000000	84.656287 
1591.000000	84.655213 
1590.000000	84.653720 
1589.000000	84.652648 
1588.000000	84.652310 
1587.000000	84.652345 
1586.000000	84.652312 
1585.000000	84.652193 
1584.000000	84.652352 
1583.000000	84.652507 
1582.000000	84.652855 
1581.000000	84.654095 
1580.000000	84.656098 
1579.000000	84.657775 
1578.000000	84.659173 
1577.000000	84.661176 
1576.000000	84.663386 
1575.000000	84.664879 
1574.000000	84.665576 
1573.000000	84.665461 
1572.000000	84.664842 
1571.000000	84.664885 
1570.000000	84.666442 
1569.000000	84.668848 
1568.000000	84.670802 
1567.000000	84.671796 
1566.000000	84.672389 
1565.000000	84.673178 
1564.000000	84.674158 
1563.000000	84.674813 
1562.000000	84.675040 
1561.000000	84.675263 
1560.000000	84.675954 
1559.000000	84.676699 
1558.000000	84.677083 
1557.000000	84.677816 
1556.000000	84.678796 
1555.000000	84.679590 
1554.000000	84.680167 
1553.000000	84.680721 
1552.000000	84.681317 
1551.000000	84.681902 
1550.000000	84.682469 
1549.000000	84.682980 
1548.000000	84.683377 
1547.000000	84.683676 
1546.000000	84.684031 
1545.000000	84.684625 
1544.000000	84.685484 
1543.000000	84.686398 
1542.000000	84.687113 
1541.000000	84.687474 
1540.000000	84.687391 
1539.000000	84.687042 
1538.000000	84.686858 
1537.000000	84.686865 
1536.000000	84.686869 
1535.000000	84.686766 
1534.000000	84.686586 
1533.000000	84.686403 
1532.000000	84.686200 
1531.000000	84.685920 
1530.000000	84.685566 
1529.000000	84.685199 
1528.000000	84.684872 
1527.000000	84.684596 
1526.000000	84.684335 
1525.000000	84.684029 
1524.000000	84.683634 
1523.000000	84.683147 
1522.000000	84.682610 
1521.000000	84.682081 
1520.000000	84.681575 
1519.000000	84.681066 
1518.000000	84.680538 
1517.000000	84.679986 
1516.000000	84.679386 
1515.000000	84.678711 
1514.000000	84.677980 
1513.000000	84.677245 
1512.000000	84.676523 
1511.000000	84.675806 
1510.000000	84.675100 
1509.000000	84.674472 
1508.000000	84.674023 
1507.000000	84.673767 
1506.000000	84.673415 
1505.000000	84.672842 
1504.000000	84.672221 
1503.000000	84.671669 
1502.000000	84.671200 
1501.000000	84.670843 
1500.000000	84.670620 
1499.000000	84.670551 
1498.000000	84.670645 
1497.000000	84.670742 
1496.000000	84.670408 
1495.000000	84.669355 
1494.000000	84.667678 
1493.000000	84.665754 
1492.000000	84.664103 
1491.000000	84.663373 
1490.000000	84.663789 
1489.000000	84.664596 
1488.000000	84.664722 
1487.000000	84.664083 
1486.000000	84.663336 
1485.000000	84.662893 
1484.000000	84.662726 
1483.000000	84.662441 
1482.000000	84.661721 
1481.000000	84.660356 
1480.000000	84.658585 
1479.000000	84.657110 
1478.000000	84.656617 
1477.000000	84.656795 
1476.000000	84.656367 
1475.000000	84.654656 
1474.000000	84.653014 
1473.000000	84.654231 
1472.000000	84.657713 
1471.000000	84.659971 
1470.000000	84.660511 
1469.000000	84.661704 
1468.000000	84.664641 
1467.000000	84.668472 
1466.000000	84.672527 
1465.000000	84.677812 
1464.000000	84.683209 
1463.000000	84.684995 
1462.000000	84.682431 
1461.000000	84.678890 
1460.000000	84.679135 
1459.000000	84.685588 
1458.000000	84.694762 
1457.000000	84.694584 
1456.000000	84.678246 
1455.000000	84.655847 
1454.000000	84.638546 
1453.000000	84.628888 
1452.000000	84.623058 
1451.000000	84.617097 
1450.000000	84.613224 
1449.000000	84.618735 
1448.000000	84.635873 
1447.000000	84.655755 
1446.000000	84.667260 
1445.000000	84.669604 
1444.000000	84.666799 
1443.000000	84.661588 
1442.000000	84.655345 
1441.000000	84.648960 
1440.000000	84.643189 
1439.000000	84.639761 
1438.000000	84.641615 
1437.000000	84.648272 
1436.000000	84.652972 
1435.000000	84.649924 
1434.000000	84.641963 
1433.000000	84.634708 
1432.000000	84.630664 
1431.000000	84.629382 
1430.000000	84.627971 
1429.000000	84.621780 
1428.000000	84.608505 
1427.000000	84.591131 
1426.000000	84.574286 
1425.000000	84.560064 
1424.000000	84.545978 
1423.000000	84.528895 
1422.000000	84.507801 
1421.000000	84.482059 
1420.000000	84.449996 
1419.000000	84.412916 
1418.000000	84.377059 
1417.000000	84.345697 
1416.000000	84.317219 
1415.000000	84.288203 
1414.000000	84.255593 
1413.000000	84.219182 
1412.000000	84.183345 
1411.000000	84.154722 
1410.000000	84.135437 
1409.000000	84.121795 
1408.000000	84.111050 
1407.000000	84.105069 
1406.000000	84.106717 
1405.000000	84.117580 
1404.000000	84.136780 
1403.000000	84.160466 
1402.000000	84.184045 
1401.000000	84.206198 
1400.000000	84.228599 
1399.000000	84.249267 
1398.000000	84.256192 
1397.000000	84.233830 
1396.000000	84.180339 
1395.000000	84.121702 
1394.000000	84.100090 
1393.000000	84.133964 
1392.000000	84.204465 
1391.000000	84.278073 
1390.000000	84.331219 
1389.000000	84.359384 
1388.000000	84.372022 
1387.000000	84.381127 
1386.000000	84.391012 
1385.000000	84.400173 
1384.000000	84.408372 
1383.000000	84.418124 
1382.000000	84.432375 
1381.000000	84.452232 
1380.000000	84.475980 
1379.000000	84.499971 
1378.000000	84.521717 
1377.000000	84.542033 
1376.000000	84.563713 
1375.000000	84.588383 
1374.000000	84.614801 
1373.000000	84.639526 
1372.000000	84.659472 
1371.000000	84.674730 
1370.000000	84.689031 
1369.000000	84.706980 
1368.000000	84.729723 
1367.000000	84.753008 
1366.000000	84.770810 
1365.000000	84.781002 
1364.000000	84.786977 
1363.000000	84.795313 
1362.000000	84.810167 
1361.000000	84.828986 
1360.000000	84.846267 
1359.000000	84.860144 
1358.000000	84.873517 
1357.000000	84.889845 
1356.000000	84.908738 
1355.000000	84.926574 
1354.000000	84.941227 
1353.000000	84.954167 
1352.000000	84.966508 
1351.000000	84.975944 
1350.000000	84.981446 
1349.000000	84.985712 
1348.000000	84.990405 
1347.000000	84.994823 
1346.000000	84.999044 
1345.000000	85.003523 
1344.000000	85.005699 
1343.000000	85.001173 
1342.000000	84.989464 
1341.000000	84.976357 
1340.000000	84.969408 
1339.000000	84.971209 
1338.000000	84.977681 
1337.000000	84.982983 
1336.000000	84.984255 
1335.000000	84.982370 
1334.000000	84.980806 
1333.000000	84.982845 
1332.000000	84.988059 
1331.000000	84.992396 
1330.000000	84.992342 
1329.000000	84.987912 
1328.000000	84.982144 
1327.000000	84.979176 
1326.000000	84.982122 
1325.000000	84.989597 
1324.000000	84.995469 
1323.000000	84.993937 
1322.000000	84.985244 
1321.000000	84.975351 
1320.000000	84.970084 
1319.000000	84.970686 
1318.000000	84.974792 
1317.000000	84.980241 
1316.000000	84.986363 
1315.000000	84.992341 
1314.000000	84.996370 
1313.000000	84.997341 
1312.000000	84.996288 
1311.000000	84.995013 
1310.000000	84.993683 
1309.000000	84.990915 
1308.000000	84.986732 
1307.000000	84.984091 
1306.000000	84.986175 
1305.000000	84.992031 
1304.000000	84.997028 
1303.000000	84.997451 
1302.000000	84.993531 
1301.000000	84.987770 
1300.000000	84.981829 
1299.000000	84.975792 
1298.000000	84.969310 
1297.000000	84.962724 
1296.000000	84.957544 
1295.000000	84.955882 
1294.000000	84.957967 
1293.000000	84.960365 
1292.000000	84.958738 
1291.000000	84.952685 
1290.000000	84.945694 
1289.000000	84.939836 
1288.000000	84.933169 
1287.000000	84.923740 
1286.000000	84.913566 
1285.000000	84.906606 
1284.000000	84.904494 
1283.000000	84.905608 
1282.000000	84.906434 
1281.000000	84.902760 
1280.000000	84.892025 
1279.000000	84.876163 
1278.000000	84.860347 
1277.000000	84.847951 
1276.000000	84.837911 
1275.000000	84.827523 
1274.000000	84.815294 
1273.000000	84.799992 
1272.000000	84.779912 
1271.000000	84.755297 
1270.000000	84.729422 
1269.000000	84.705427 
1268.000000	84.684180 
1267.000000	84.666195 
1266.000000	84.652041 
1265.000000	84.638929 
1264.000000	84.620514 
1263.000000	84.593334 
1262.000000	84.561419 
1261.000000	84.531823 
1260.000000	84.507742 
1259.000000	84.488570 
1258.000000	84.474050 
1257.000000	84.465007 
1256.000000	84.460947 
1255.000000	84.459302 
1254.000000	84.456269 
1253.000000	84.447735 
1252.000000	84.432357 
1251.000000	84.416257 
1250.000000	84.411300 
1249.000000	84.424681 
1248.000000	84.451620 
1247.000000	84.480051 
1246.000000	84.499983 
1245.000000	84.506211 
1244.000000	84.497612 
1243.000000	84.481590 
1242.000000	84.476308 
1241.000000	84.498228 
1240.000000	84.544994 
1239.000000	84.595116 
1238.000000	84.627859 
1237.000000	84.640008 
1236.000000	84.641166 
1235.000000	84.640036 
1234.000000	84.639840 
1233.000000	84.642076 
1232.000000	84.647558 
1231.000000	84.654119 
1230.000000	84.658323 
1229.000000	84.660374 
1228.000000	84.664178 
1227.000000	84.671721 
1226.000000	84.679667 
1225.000000	84.682703 
1224.000000	84.679618 
1223.000000	84.676057 
1222.000000	84.681775 
1221.000000	84.704335 
1220.000000	84.743623 
1219.000000	84.790999 
1218.000000	84.833945 
1217.000000	84.862899 
1216.000000	84.875278 
1215.000000	84.875470 
1214.000000	84.871787 
1213.000000	84.871260 
1212.000000	84.875607 
1211.000000	84.881808 
1210.000000	84.886039 
1209.000000	84.886445 
1208.000000	84.883427 
1207.000000	84.879551 
1206.000000	84.878908 
1205.000000	84.883682 
1204.000000	84.890407 
1203.000000	84.891763 
1202.000000	84.883320 
1201.000000	84.867341 
1200.000000	84.849653 
1199.000000	84.834314 
1198.000000	84.821681 
1197.000000	84.809745 
1196.000000	84.796055 
1195.000000	84.779546 
1194.000000	84.761634 
1193.000000	84.745283 
1192.000000	84.733176 
1191.000000	84.726753 
1190.000000	84.725603 
1189.000000	84.726889 
1188.000000	84.726658 
1187.000000	84.723175 
1186.000000	84.717941 
1185.000000	84.712272 
1184.000000	84.704960 
1183.000000	84.695684 
1182.000000	84.688648 
1181.000000	84.688916 
1180.000000	84.695688 
1179.000000	84.702603 
1178.000000	84.704503 
1177.000000	84.700588 
1176.000000	84.691219 
1175.000000	84.676328 
1174.000000	84.658300 
1173.000000	84.642139 
1172.000000	84.630640 
1171.000000	84.622306 
1170.000000	84.615376 
1169.000000	84.611104 
1168.000000	84.611320 
1167.000000	84.614813 
1166.000000	84.617961 
1165.000000	84.618006 
1164.000000	84.614834 
1163.000000	84.610984 
1162.000000	84.610572 
1161.000000	84.616253 
1160.000000	84.626094 
1159.000000	84.634808 
1158.000000	84.638818 
1157.000000	84.638455 
1156.000000	84.635163 
1155.000000	84.629401 
1154.000000	84.622255 
1153.000000	84.616207 
1152.000000	84.612163 
1151.000000	84.607428 
1150.000000	84.598567 
1149.000000	84.585526 
1148.000000	84.571847 
1147.000000	84.561423 
1146.000000	84.555159 
1145.000000	84.549939 
1144.000000	84.541163 
1143.000000	84.527613 
1142.000000	84.513490 
1141.000000	84.503864 
1140.000000	84.498306 
1139.000000	84.491137 
1138.000000	84.477931 
1137.000000	84.459704 
1136.000000	84.440596 
1135.000000	84.423615 
1134.000000	84.409169 
1133.000000	84.395648 
1132.000000	84.380701 
1131.000000	84.363604 
1130.000000	84.346465 
1129.000000	84.331357 
1128.000000	84.316592 
1127.000000	84.298370 
1126.000000	84.276479 
1125.000000	84.255606 
1124.000000	84.239657 
1123.000000	84.226848 
1122.000000	84.211943 
1121.000000	84.192181 
1120.000000	84.169642 
1119.000000	84.148257 
1118.000000	84.129181 
1117.000000	84.108835 
1116.000000	84.081490 
1115.000000	84.044293 
1114.000000	84.000034 
1113.000000	83.955283 
1112.000000	83.916674 
1111.000000	83.888299 
1110.000000	83.869793 
1109.000000	83.855501 
1108.000000	83.837890 
1107.000000	83.814381 
1106.000000	83.789885 
1105.000000	83.771186 
1104.000000	83.760458 
1103.000000	83.755704 
1102.000000	83.755911 
1101.000000	83.763066 
1100.000000	83.779961 
1099.000000	83.807288 
1098.000000	83.840809 
1097.000000	83.871861 
1096.000000	83.890983 
1095.000000	83.892832 
1094.000000	83.874841 
1093.000000	83.831091 
1092.000000	83.753747 
1091.000000	83.645631 
1090.000000	83.526324 
1089.000000	83.417187 
1088.000000	83.321165 
1087.000000	83.224233 
1086.000000	83.115745 
1085.000000	83.000271 
1084.000000	82.888689 
1083.000000	82.784864 
1082.000000	82.685205 
1081.000000	82.587275 
1080.000000	82.494129 
1079.000000	82.410914 
1078.000000	82.340550 
1077.000000	82.283677 
1076.000000	82.240788 
1075.000000	82.212995 
1074.000000	82.201461 
1073.000000	82.206188 
1072.000000	82.221903 
1071.000000	82.231863 
1070.000000	82.209565 
1069.000000	82.137311 
1068.000000	82.030518 
1067.000000	81.939477 
1066.000000	81.915594 
1065.000000	81.972095 
1064.000000	82.078599 
1063.000000	82.188646 
1062.000000	82.267946 
1061.000000	82.301438 
1060.000000	82.291410 
1059.000000	82.261168 
1058.000000	82.249987 
1057.000000	82.285960 
1056.000000	82.360984 
1055.000000	82.439643 
1054.000000	82.493676 
1053.000000	82.521268 
1052.000000	82.533310 
1051.000000	82.532841 
1050.000000	82.514988 
1049.000000	82.479640 
1048.000000	82.434978 
1047.000000	82.390643 
1046.000000	82.352434 
1045.000000	82.321996 
1044.000000	82.298730 
1043.000000	82.282536 
1042.000000	82.274258 
1041.000000	82.271463 
1040.000000	82.266691 
1039.000000	82.256754 
1038.000000	82.253555 
1037.000000	82.276737 
1036.000000	82.332172 
1035.000000	82.404231 
1034.000000	82.472533 
1033.000000	82.529137 
1032.000000	82.572767 
1031.000000	82.595526 
1030.000000	82.589597 
1029.000000	82.566791 
1028.000000	82.559011 
1027.000000	82.591371 
1026.000000	82.659262 
1025.000000	82.735076 
1024.000000	82.794882 
1023.000000	82.834762 
1022.000000	82.864287 
1021.000000	82.891392 
1020.000000	82.915275 
1019.000000	82.931426 
1018.000000	82.940291 
1017.000000	82.949489 
1016.000000	82.967992 
1015.000000	82.999362 
1014.000000	83.040105 
1013.000000	83.083297 
1012.000000	83.123812 
1011.000000	83.160706 
1010.000000	83.196041 
1009.000000	83.232293 
1008.000000	83.270828 
1007.000000	83.312110 
1006.000000	83.355541 
1005.000000	83.398211 
1004.000000	83.435820 
1003.000000	83.467362 
1002.000000	83.497789 
1001.000000	83.532907 
1000.000000	83.572098 
999.000000	 83.609517 
998.000000	 83.642314 
997.000000	 83.673705 
996.000000	 83.707239 
995.000000	 83.742164 
994.000000	 83.776279 
993.000000	 83.809651 
992.000000	 83.842307 
991.000000	 83.871205 
990.000000	 83.894065 
989.000000	 83.914236 
988.000000	 83.937292 
987.000000	 83.964120 
986.000000	 83.991803 
985.000000	 84.019493 
984.000000	 84.048086 
983.000000	 84.075760 
982.000000	 84.100610 
981.000000	 84.127219 
980.000000	 84.163217 
979.000000	 84.207772 
978.000000	 84.249924 
977.000000	 84.280576 
976.000000	 84.301246 
975.000000	 84.319453 
974.000000	 84.339932 
973.000000	 84.362929 
972.000000	 84.387679 
971.000000	 84.414016 
970.000000	 84.441711 
969.000000	 84.470154 
968.000000	 84.498086 
967.000000	 84.523497 
966.000000	 84.545427 
965.000000	 84.566131 
964.000000	 84.589837 
963.000000	 84.618739 
962.000000	 84.650897 
961.000000	 84.681926 
960.000000	 84.708120 
959.000000	 84.728818 
958.000000	 84.746766 
957.000000	 84.765002 
956.000000	 84.782668 
955.000000	 84.795935 
954.000000	 84.803825 
953.000000	 84.810491 
952.000000	 84.820415 
951.000000	 84.834196 
950.000000	 84.850857 
949.000000	 84.870480 
948.000000	 84.891212 
947.000000	 84.907104 
946.000000	 84.913619 
945.000000	 84.913646 
944.000000	 84.914300 
943.000000	 84.918928 
942.000000	 84.926035 
941.000000	 84.934517 
940.000000	 84.945002 
939.000000	 84.956097 
938.000000	 84.963692 
937.000000	 84.965219 
936.000000	 84.962194 
935.000000	 84.958303 
934.000000	 84.957047 
933.000000	 84.960533 
932.000000	 84.967589 
931.000000	 84.973378 
930.000000	 84.973945 
929.000000	 84.971601 
928.000000	 84.973210 
927.000000	 84.982238 
926.000000	 84.994507 
925.000000	 85.002950 
924.000000	 85.005374 
923.000000	 85.006341 
922.000000	 85.011328 
921.000000	 85.019493 
920.000000	 85.023626 
919.000000	 85.018662 
918.000000	 85.009262 
917.000000	 85.005829 
916.000000	 85.012470 
915.000000	 85.022268 
914.000000	 85.025706 
913.000000	 85.020334 
912.000000	 85.009783 
911.000000	 84.996754 
910.000000	 84.981086 
909.000000	 84.963279 
908.000000	 84.946441 
907.000000	 84.935222 
906.000000	 84.934177 
905.000000	 84.944871 
904.000000	 84.962507 
903.000000	 84.978268 
902.000000	 84.988343 
901.000000	 84.998077 
900.000000	 85.013802 
899.000000	 85.034232 
898.000000	 85.054389 
897.000000	 85.074431 
896.000000	 85.097818 
895.000000	 85.122410 
894.000000	 85.141713 
893.000000	 85.156116 
892.000000	 85.175776 
891.000000	 85.209518 
890.000000	 85.255866 
889.000000	 85.307380 
888.000000	 85.358562 
887.000000	 85.405904 
886.000000	 85.445353 
885.000000	 85.475186 
884.000000	 85.498920 
883.000000	 85.520152 
882.000000	 85.535618 
881.000000	 85.538799 
880.000000	 85.530216 
879.000000	 85.518557 
878.000000	 85.509698 
877.000000	 85.499731 
876.000000	 85.482794 
875.000000	 85.460762 
874.000000	 85.439042 
873.000000	 85.416036 
872.000000	 85.385630 
871.000000	 85.351346 
870.000000	 85.329342 
869.000000	 85.332038 
868.000000	 85.354216 
867.000000	 85.379510 
866.000000	 85.397900 
865.000000	 85.412307 
864.000000	 85.429692 
863.000000	 85.452175 
862.000000	 85.477386 
861.000000	 85.502329 
860.000000	 85.524973 
859.000000	 85.544993 
858.000000	 85.563856 
857.000000	 85.581835 
856.000000	 85.595692 
855.000000	 85.603221 
854.000000	 85.609389 
853.000000	 85.622173 
852.000000	 85.641066 
851.000000	 85.655946 
850.000000	 85.661015 
849.000000	 85.664411 
848.000000	 85.678284 
847.000000	 85.702131 
846.000000	 85.722066 
845.000000	 85.726634 
844.000000	 85.718733 
843.000000	 85.711736 
842.000000	 85.716899 
841.000000	 85.735179 
840.000000	 85.758296 
839.000000	 85.775140 
838.000000	 85.778464 
837.000000	 85.768547 
836.000000	 85.752875 
835.000000	 85.742054 
834.000000	 85.742873 
833.000000	 85.752734 
832.000000	 85.761492 
831.000000	 85.761183 
830.000000	 85.754492 
829.000000	 85.752034 
828.000000	 85.761171 
827.000000	 85.779587 
826.000000	 85.799151 
825.000000	 85.812272 
824.000000	 85.814073 
823.000000	 85.803811 
822.000000	 85.787517 
821.000000	 85.774718 
820.000000	 85.768852 
819.000000	 85.763703 
818.000000	 85.752017 
817.000000	 85.735719 
816.000000	 85.724646 
815.000000	 85.725506 
814.000000	 85.734847 
813.000000	 85.743987 
812.000000	 85.748194 
811.000000	 85.747404 
810.000000	 85.738394 
809.000000	 85.711649 
808.000000	 85.661196 
807.000000	 85.596790 
806.000000	 85.540035 
805.000000	 85.504573 
804.000000	 85.483939 
803.000000	 85.461198 
802.000000	 85.427231 
801.000000	 85.386723 
800.000000	 85.350003 
799.000000	 85.324994 
798.000000	 85.315918 
797.000000	 85.323970 
796.000000	 85.346925 
795.000000	 85.379223 
794.000000	 85.412998 
793.000000	 85.440079 
792.000000	 85.456622 
791.000000	 85.467567 
790.000000	 85.482128 
789.000000	 85.501142 
788.000000	 85.513504 
787.000000	 85.510638 
786.000000	 85.499770 
785.000000	 85.494479 
784.000000	 85.494980 
783.000000	 85.488386 
782.000000	 85.469478 
781.000000	 85.451024 
780.000000	 85.448641 
779.000000	 85.463126 
778.000000	 85.483309 
777.000000	 85.501347 
776.000000	 85.518942 
775.000000	 85.540035 
774.000000	 85.563610 
773.000000	 85.585301 
772.000000	 85.603414 
771.000000	 85.620812 
770.000000	 85.639819 
769.000000	 85.656460 
768.000000	 85.663451 
767.000000	 85.661031 
766.000000	 85.661236 
765.000000	 85.676225 
764.000000	 85.703750 
763.000000	 85.729413 
762.000000	 85.743101 
761.000000	 85.747642 
760.000000	 85.750527 
759.000000	 85.753781 
758.000000	 85.755159 
757.000000	 85.754678 
756.000000	 85.755448 
755.000000	 85.759547 
754.000000	 85.766007 
753.000000	 85.772794 
752.000000	 85.779781 
751.000000	 85.789751 
750.000000	 85.806049 
749.000000	 85.828233 
748.000000	 85.850439 
747.000000	 85.865791 
746.000000	 85.872576 
745.000000	 85.874739 
744.000000	 85.877022 
743.000000	 85.881686 
742.000000	 85.889967 
741.000000	 85.903045 
740.000000	 85.919608 
739.000000	 85.935247 
738.000000	 85.946861 
737.000000	 85.955707 
736.000000	 85.964013 
735.000000	 85.969839 
734.000000	 85.968404 
733.000000	 85.959013 
732.000000	 85.948619 
731.000000	 85.946608 
730.000000	 85.957260 
729.000000	 85.978282 
728.000000	 86.003107 
727.000000	 86.024474 
726.000000	 86.038742 
725.000000	 86.047054 
724.000000	 86.052227 
723.000000	 86.055472 
722.000000	 86.056725 
721.000000	 86.056917 
720.000000	 86.057946 
719.000000	 86.061170 
718.000000	 86.067298 
717.000000	 86.076401 
716.000000	 86.087037 
715.000000	 86.096209 
714.000000	 86.101154 
713.000000	 86.100910 
712.000000	 86.095353 
711.000000	 86.083462 
710.000000	 86.067190 
709.000000	 86.054086 
708.000000	 86.050389 
707.000000	 86.056143 
706.000000	 86.065762 
705.000000	 86.072801 
704.000000	 86.073550 
703.000000	 86.068346 
702.000000	 86.060076 
701.000000	 86.051655 
700.000000	 86.044570 
699.000000	 86.037513 
698.000000	 86.027476 
697.000000	 86.012590 
696.000000	 85.994904 
695.000000	 85.982255 
694.000000	 85.983638 
693.000000	 86.001880 
692.000000	 86.031196 
691.000000	 86.060322 
690.000000	 86.080083 
689.000000	 86.087767 
688.000000	 86.086508 
687.000000	 86.083264 
686.000000	 86.083677 
685.000000	 86.088337 
684.000000	 86.095373 
683.000000	 86.104971 
682.000000	 86.120139 
681.000000	 86.142093 
680.000000	 86.166898 
679.000000	 86.187429 
678.000000	 86.199091 
677.000000	 86.204478 
676.000000	 86.209824 
675.000000	 86.218107 
674.000000	 86.227702 
673.000000	 86.234483 
672.000000	 86.233160 
671.000000	 86.215991 
670.000000	 86.179498 
669.000000	 86.136855 
668.000000	 86.135042 
667.000000	 86.192076 
666.000000	 86.267508 
665.000000	 86.332698 
664.000000	 86.386897 
663.000000	 86.427981 
662.000000	 86.456127 
661.000000	 86.478452 
660.000000	 86.501614 
659.000000	 86.523735 
658.000000	 86.542867 
657.000000	 86.566242 
656.000000	 86.598593 
655.000000	 86.630623 
654.000000	 86.651440 
653.000000	 86.661521 
652.000000	 86.664221 
651.000000	 86.658918 
650.000000	 86.651454 

